UTC, GPSSecondsToday, TickCount, EventID, CoarseMarker, Pitch, Roll, Heading, PitchRate, RollRate, YawRate, AccelX, AccelY, AccelZ, GForce, Longitude, Latitude, GPSAltitude, VelocityEast, VelocityNorth, VelocityDown, GroundSpeed-kt, GroundTrack, FlightPathAngle, IAS-kt, Altitude, VSI, INSMode, AHRSStatus, MagStatus, GPSValid,  Aileron,  Elevator,  Rudder,  AoS,  AoA,  Analog 5,  Analog 6,  Analog 7,  Analog 8,  Analog 9,  Analog 10,  Analog 11,  Analog 12,  Analog 13,  Analog 14,  Analog 15,  Digital0, Digital1, Digital2, Digital3
14:25:53, 51953.957, 1505862, 3, 1, 13.100000, 0.900000, 318.500000, -0.100000, 1.100000, 0.100000, 2.663484, -0.137091, -9.234063, 0.941675, 21.827655, -33.590432, 8368.000000, -27.515449, 6.510570, -1.483796, 54.000000, 283.400000, 0.000000, 60.000000, 7996.000000, 372.000000, 0, 0, 0, 0, 52.578503, 75.289673, 72.164154, -3.779018, 15.708350, 0.122760, 0.123640, 0.121640, 0.123480, 0.122720, 0.123560, 0.122120, 0.123480, 0.123920, 0.122680, 0.122560, 0, 1, 0, 0
14:25:54, 51954.015, 1505941, 3, 1, 13.100000, 1.000000, 318.500000, -0.200000, 1.300000, 0.100000, 2.790783, 0.048961, -8.656322, 0.882758, 21.827595, -33.590420, 8369.000000, -27.515444, 6.510586, -1.483821, 54.000000, 283.300000, 0.000000, 60.000000, 7996.000000, 367.000000, 0, 0, 0, 0, 52.578503, 75.289673, 72.164154, -3.779018, 15.708350, 0.122760, 0.123640, 0.121640, 0.123480, 0.122720, 0.123560, 0.122120, 0.123480, 0.123920, 0.122680, 0.122560, 0, 1, 0, 0
14:25:54, 51954.067, 1505993, 3, 1, 13.000000, 1.100000, 318.500000, -0.400000, 1.200000, 0.200000, 2.565562, 0.019584, -8.842375, 0.901731, 21.827595, -33.590420, 8369.000000, -27.515444, 6.510586, -1.483821, 54.000000, 283.300000, 0.000000, 60.100000, 7996.000000, 364.000000, 0, 0, 0, 0, 51.902359, 75.455200, 72.193184, -3.718750, 15.528565, 0.123680, 0.123680, 0.122240, 0.123240, 0.123160, 0.123320, 0.122200, 0.123520, 0.123160, 0.121960, 0.121560, 0, 1, 0, 0
14:25:54, 51954.132, 1506058, 3, 1, 13.000000, 1.200000, 318.500000, -0.400000, 1.100000, 0.300000, 2.898497, 0.000000, -8.979466, 0.915711, 21.827595, -33.590420, 8369.000000, -27.515444, 6.510586, -1.483821, 54.000000, 283.300000, 0.000000, 60.100000, 7996.000000, 360.000000, 0, 0, 0, 0, 51.902359, 75.455200, 72.193184, -3.718750, 15.528565, 0.123680, 0.123680, 0.122240, 0.123240, 0.123160, 0.123320, 0.122200, 0.123520, 0.123160, 0.121960, 0.121560, 0, 1, 0, 0
14:25:54, 51954.214, 1506140, 3, 1, 13.000000, 1.200000, 318.600000, -0.700000, 0.600000, 0.300000, 2.536185, 0.039169, -8.783621, 0.895739, 21.827536, -33.590408, 8370.000000, -27.741798, 6.562003, -1.340870, 55.000000, 283.400000, 0.000000, 60.200000, 7996.000000, 355.000000, 0, 0, 0, 0, 51.203300, 75.812126, 72.212540, -3.689732, 15.835398, 0.122800, 0.122840, 0.123320, 0.122760, 0.122840, 0.123640, 0.122080, 0.122840, 0.122200, 0.122440, 0.122480, 0, 1, 0, 0
14:25:54, 51954.263, 1506189, 3, 1, 12.900000, 1.300000, 318.600000, -0.800000, 0.600000, 0.400000, 2.927874, -0.068546, -9.204687, 0.938679, 21.827536, -33.590408, 8370.000000, -27.741798, 6.562003, -1.340870, 55.000000, 283.400000, 0.000000, 60.200000, 7997.000000, 353.000000, 0, 0, 0, 0, 51.203300, 75.812126, 72.212540, -3.689732, 15.835398, 0.122800, 0.122840, 0.123320, 0.122760, 0.122840, 0.123640, 0.122080, 0.122840, 0.122200, 0.122440, 0.122480, 0, 1, 0, 0
14:25:54, 51954.329, 1506255, 3, 1, 12.800000, 1.300000, 318.600000, -0.900000, 0.200000, 0.400000, 2.594938, 0.117507, -8.646530, 0.881759, 21.827536, -33.590408, 8370.000000, -27.741798, 6.562003, -1.340870, 55.000000, 283.400000, 0.000000, 60.200000, 7997.000000, 351.000000, 0, 0, 0, 0, 51.203300, 75.812126, 72.212540, -3.689732, 15.835398, 0.122800, 0.122840, 0.123320, 0.122760, 0.122840, 0.123640, 0.122080, 0.122840, 0.122200, 0.122440, 0.122480, 0, 1, 0, 0
14:25:54, 51954.414, 1506340, 3, 1, 12.700000, 1.300000, 318.700000, -1.300000, 0.300000, 0.500000, 2.878913, -0.107714, -9.292817, 0.947666, 21.827476, -33.590396, 8371.000000, -27.854972, 6.638500, -1.235682, 55.000000, 283.500000, 0.000000, 60.300000, 7997.000000, 347.000000, 0, 0, 0, 0, 50.538620, 76.386307, 71.999611, -3.564732, 16.031961, 0.123640, 0.122080, 0.123560, 0.123440, 0.123120, 0.123320, 0.121280, 0.122520, 0.122080, 0.122360, 0.121360, 0, 1, 0, 0
14:25:54, 51954.460, 1506386, 3, 1, 12.700000, 1.300000, 318.700000, -1.300000, -0.100000, 0.400000, 2.741822, 0.156676, -8.548608, 0.871773, 21.827476, -33.590396, 8371.000000, -27.854972, 6.638500, -1.235682, 55.000000, 283.500000, 0.000000, 60.400000, 7997.000000, 346.000000, 0, 0, 0, 0, 50.538620, 76.386307, 71.999611, -3.564732, 16.031961, 0.123640, 0.122080, 0.123560, 0.123440, 0.123120, 0.123320, 0.121280, 0.122520, 0.122080, 0.122360, 0.121360, 0, 1, 0, 0
14:25:54, 51954.525, 1506451, 3, 1, 12.500000, 1.300000, 318.700000, -1.700000, 0.000000, 0.400000, 2.732029, -0.068546, -9.322193, 0.950662, 21.827476, -33.590396, 8371.000000, -27.854972, 6.638500, -1.235682, 55.000000, 283.500000, 0.000000, 60.400000, 7998.000000, 343.000000, 0, 0, 0, 0, 50.114601, 76.825989, 71.564072, -3.763393, 16.144627, 0.122720, 0.122680, 0.122920, 0.123200, 0.123520, 0.122760, 0.122160, 0.123040, 0.123480, 0.122240, 0.122920, 0, 1, 0, 0
14:25:54, 51954.591, 1506517, 3, 1, 12.400000, 1.300000, 318.700000, -1.600000, -0.400000, 0.300000, 2.820159, 0.088130, -8.558400, 0.872772, 21.827476, -33.590396, 8371.000000, -27.854972, 6.638500, -1.235682, 55.000000, 283.500000, 0.000000, 60.500000, 7998.000000, 340.000000, 0, 0, 0, 0, 50.114601, 76.825989, 71.564072, -3.763393, 16.144627, 0.122720, 0.122680, 0.122920, 0.123200, 0.123520, 0.122760, 0.122160, 0.123040, 0.123480, 0.122240, 0.122920, 0, 1, 0, 0
14:25:54, 51954.656, 1506582, 3, 1, 12.300000, 1.300000, 318.800000, -2.000000, -0.300000, 0.300000, 2.643899, -0.048961, -9.145933, 0.932687, 21.827415, -33.590383, 8371.000000, -28.024811, 6.691707, -1.315796, 55.000000, 283.500000, 0.000000, 60.500000, 7998.000000, 335.000000, 0, 0, 0, 0, 50.114601, 76.825989, 71.564072, -3.763393, 16.144627, 0.122720, 0.122680, 0.122920, 0.123200, 0.123520, 0.122760, 0.122160, 0.123040, 0.123480, 0.122240, 0.122920, 0, 1, 0, 0
14:25:54, 51954.722, 1506648, 3, 1, 12.200000, 1.300000, 318.800000, -1.900000, -0.200000, 0.200000, 2.888705, 0.019584, -8.812998, 0.898735, 21.827415, -33.590383, 8371.000000, -28.024811, 6.691707, -1.315796, 55.000000, 283.500000, 0.000000, 60.600000, 7998.000000, 331.000000, 0, 0, 0, 0, 50.045841, 77.151871, 71.554398, -3.707589, 15.816221, 0.123600, 0.123720, 0.123120, 0.123480, 0.122640, 0.123320, 0.122160, 0.123400, 0.122480, 0.121520, 0.123040, 0, 1, 0, 0
14:25:54, 51954.807, 1506733, 3, 1, 12.000000, 1.200000, 318.800000, -2.000000, -0.600000, 0.100000, 2.585146, 0.009792, -9.048011, 0.922702, 21.827354, -33.590370, 8372.000000, -28.024805, 6.691723, -1.315823, 56.000000, 283.600000, 0.000000, 60.700000, 7998.000000, 327.000000, 0, 0, 0, 0, 50.045841, 77.151871, 71.554398, -3.707589, 15.816221, 0.123600, 0.123720, 0.123120, 0.123480, 0.122640, 0.123320, 0.122160, 0.123400, 0.122480, 0.121520, 0.123040, 0, 1, 0, 0
14:25:54, 51954.853, 1506779, 3, 1, 11.900000, 1.200000, 318.800000, -2.100000, -0.500000, 0.100000, 2.918082, -0.127299, -9.106765, 0.928693, 21.827354, -33.590370, 8372.000000, -28.296495, 6.932693, -1.182812, 56.000000, 283.600000, 0.000000, 60.800000, 7998.000000, 324.000000, 0, 0, 0, 0, 50.297958, 77.043243, 71.351143, -3.667411, 15.300838, 0.123560, 0.122640, 0.123040, 0.123560, 0.123360, 0.123640, 0.120640, 0.123440, 0.122760, 0.122600, 0.121360, 0, 1, 0, 0
14:25:54, 51954.918, 1506844, 3, 1, 11.800000, 1.200000, 318.800000, -2.100000, 0.000000, 0.000000, 2.536185, -0.019584, -8.959881, 0.913714, 21.827354, -33.590370, 8372.000000, -28.296495, 6.932693, -1.182812, 56.000000, 283.600000, 0.000000, 60.900000, 7999.000000, 319.000000, 0, 0, 0, 0, 50.297958, 77.043243, 71.351143, -3.667411, 15.300838, 0.123560, 0.122640, 0.123040, 0.123560, 0.123360, 0.123640, 0.120640, 0.123440, 0.122760, 0.122600, 0.121360, 0, 1, 0, 0
14:25:54, 51954.985, 1506911, 3, 1, 11.600000, 1.200000, 318.800000, -2.300000, 0.100000, 0.100000, 2.820159, -0.166468, -9.224271, 0.940676, 21.827354, -33.590370, 8372.000000, -28.296495, 6.932693, -1.182812, 56.000000, 283.600000, 0.000000, 61.000000, 7999.000000, 316.000000, 0, 0, 0, 0, 50.355259, 76.794952, 71.496323, -3.591518, 15.094686, 0.122920, 0.122920, 0.123280, 0.122760, 0.122840, 0.123600, 0.122200, 0.122520, 0.122720, 0.123120, 0.121960, 0, 1, 0, 0
14:25:55, 51955.048, 1506989, 3, 1, 11.500000, 1.200000, 318.800000, -2.200000, 0.000000, 0.100000, 2.477432, 0.117507, -8.597569, 0.876766, 21.827292, -33.590357, 8373.000000, -28.296490, 6.932710, -1.182838, 56.000000, 283.700000, 0.000000, 61.100000, 7999.000000, 314.000000, 0, 0, 0, 0, 50.355259, 76.794952, 71.496323, -3.591518, 15.094686, 0.122920, 0.122920, 0.123280, 0.122760, 0.122840, 0.123600, 0.122200, 0.122520, 0.122720, 0.123120, 0.121960, 0, 1, 0, 0
14:25:55, 51955.100, 1507041, 3, 1, 11.300000, 1.200000, 318.800000, -2.400000, 0.300000, 0.200000, 2.634107, -0.166468, -9.145933, 0.932687, 21.827292, -33.590357, 8373.000000, -28.296490, 6.932710, -1.182838, 56.000000, 283.700000, 0.000000, 61.100000, 7999.000000, 311.000000, 0, 0, 0, 0, 50.355259, 76.794952, 71.496323, -3.591518, 15.094686, 0.122920, 0.122920, 0.123280, 0.122760, 0.122840, 0.123600, 0.122200, 0.122520, 0.122720, 0.123120, 0.121960, 0, 1, 0, 0
14:25:55, 51955.165, 1507106, 3, 1, 11.100000, 1.200000, 318.900000, -2.400000, 0.100000, 0.200000, 2.467639, 0.146883, -8.323387, 0.848806, 21.827292, -33.590357, 8373.000000, -28.296490, 6.932710, -1.182838, 56.000000, 283.700000, 0.000000, 61.200000, 7999.000000, 309.000000, 0, 0, 0, 0, 50.114601, 76.696671, 71.447929, -3.299107, 14.840591, 0.123640, 0.123120, 0.123000, 0.123440, 0.122520, 0.123280, 0.122280, 0.122760, 0.122960, 0.122440, 0.122520, 0, 1, 0, 0
14:25:55, 51955.231, 1507172, 3, 1, 11.000000, 1.300000, 318.900000, -2.400000, 0.400000, 0.200000, 2.457847, -0.137091, -8.881544, 0.905725, 21.827231, -33.590344, 8375.000000, -28.409664, 7.009208, -1.077652, 56.000000, 283.900000, 0.000000, 61.300000, 8000.000000, 308.000000, 0, 0, 0, 0, 50.114601, 76.696671, 71.447929, -3.299107, 14.840591, 0.123640, 0.123120, 0.123000, 0.123440, 0.122520, 0.123280, 0.122280, 0.122760, 0.122960, 0.122440, 0.122520, 0, 1, 0, 0
14:25:55, 51955.296, 1507237, 3, 1, 10.800000, 1.300000, 318.900000, -2.200000, 0.200000, 0.400000, 2.506808, 0.127299, -8.284218, 0.844811, 21.827231, -33.590344, 8375.000000, -28.409664, 7.009208, -1.077652, 56.000000, 283.900000, 0.000000, 61.400000, 8000.000000, 303.000000, 0, 0, 0, 0, 50.057301, 76.484589, 71.583435, -3.390625, 14.392329, 0.123600, 0.123560, 0.121680, 0.123560, 0.122840, 0.123560, 0.121280, 0.123360, 0.122560, 0.123000, 0.122600, 0, 1, 0, 0
14:25:55, 51955.362, 1507303, 3, 1, 10.700000, 1.300000, 318.900000, -1.900000, 0.700000, 0.600000, 2.408886, -0.068546, -8.715076, 0.888749, 21.827231, -33.590344, 8375.000000, -28.409664, 7.009208, -1.077652, 56.000000, 283.900000, 0.000000, 61.500000, 8000.000000, 295.000000, 0, 0, 0, 0, 50.057301, 76.484589, 71.583435, -3.390625, 14.392329, 0.123600, 0.123560, 0.121680, 0.123560, 0.122840, 0.123560, 0.121280, 0.123360, 0.122560, 0.123000, 0.122600, 0, 1, 0, 0
14:25:55, 51955.427, 1507368, 3, 1, 10.600000, 1.400000, 319.000000, -1.700000, 0.900000, 0.600000, 2.545977, 0.137091, -8.352764, 0.851801, 21.827169, -33.590331, 8375.000000, -28.596465, 7.142054, -1.057305, 57.000000, 284.000000, 0.000000, 61.600000, 8000.000000, 291.000000, 0, 0, 0, 0, 50.057301, 76.484589, 71.583435, -3.390625, 14.392329, 0.123600, 0.123560, 0.121680, 0.123560, 0.122840, 0.123560, 0.121280, 0.123360, 0.122560, 0.123000, 0.122600, 0, 1, 0, 0
14:25:55, 51955.493, 1507434, 3, 1, 10.500000, 1.500000, 319.000000, -1.500000, 0.800000, 0.800000, 2.467639, 0.000000, -8.695491, 0.886752, 21.827169, -33.590331, 8375.000000, -28.596465, 7.142054, -1.057305, 57.000000, 284.000000, 0.000000, 61.700000, 8000.000000, 287.000000, 0, 0, 0, 0, 50.275040, 76.117317, 71.389854, -3.410714, 14.174191, 0.122720, 0.122800, 0.123080, 0.123160, 0.122880, 0.122960, 0.120080, 0.122960, 0.122120, 0.121960, 0.123080, 0, 1, 0, 0
14:25:55, 51955.558, 1507499, 3, 1, 10.400000, 1.500000, 319.100000, -1.100000, 0.800000, 0.800000, 2.643899, 0.088130, -8.548608, 0.871773, 21.827169, -33.590331, 8375.000000, -28.596465, 7.142054, -1.057305, 57.000000, 284.000000, 0.000000, 61.800000, 8000.000000, 284.000000, 0, 0, 0, 0, 50.275040, 76.117317, 71.389854, -3.410714, 14.174191, 0.122720, 0.122800, 0.123080, 0.123160, 0.122880, 0.122960, 0.120080, 0.122960, 0.122120, 0.121960, 0.123080, 0, 1, 0, 0
14:25:55, 51955.624, 1507565, 3, 1, 10.300000, 1.600000, 319.200000, -1.200000, 1.000000, 1.000000, 2.497016, 0.058753, -8.558400, 0.872772, 21.827107, -33.590318, 8376.000000, -28.551129, 7.079454, -0.963052, 57.000000, 284.000000, 0.000000, 61.900000, 8000.000000, 279.000000, 0, 0, 0, 0, 50.103142, 75.987999, 71.293068, -2.915179, 14.078306, 0.123640, 0.123880, 0.122160, 0.123200, 0.123080, 0.123560, 0.122120, 0.121960, 0.122960, 0.122920, 0.122280, 0, 1, 0, 0
14:25:55, 51955.689, 1507630, 3, 1, 10.300000, 1.700000, 319.200000, -0.800000, 0.400000, 1.000000, 2.673276, 0.058753, -8.783621, 0.895739, 21.827107, -33.590318, 8376.000000, -28.551129, 7.079454, -0.963052, 57.000000, 284.000000, 0.000000, 61.900000, 8000.000000, 275.000000, 0, 0, 0, 0, 50.103142, 75.987999, 71.293068, -2.915179, 14.078306, 0.123640, 0.123880, 0.122160, 0.123200, 0.123080, 0.123560, 0.122120, 0.121960, 0.122960, 0.122920, 0.122280, 0, 1, 0, 0
14:25:55, 51955.756, 1507697, 3, 1, 10.200000, 1.700000, 319.300000, -1.000000, 0.200000, 1.100000, 2.634107, 0.088130, -8.675907, 0.884755, 21.827107, -33.590318, 8376.000000, -28.551129, 7.079454, -0.963052, 57.000000, 284.000000, 0.000000, 62.000000, 8000.000000, 270.000000, 0, 0, 0, 0, 49.989735, 75.993172, 70.973671, -3.308036, 14.042350, 0.122800, 0.123480, 0.122280, 0.123040, 0.122840, 0.123560, 0.122040, 0.123520, 0.123520, 0.122120, 0.122160, 0, 1, 0, 0
14:25:55, 51955.820, 1507761, 3, 1, 10.200000, 1.700000, 319.400000, -0.700000, 0.000000, 1.100000, 2.555769, 0.029377, -8.754245, 0.892744, 21.827045, -33.590305, 8377.000000, -28.709634, 7.218569, -0.952147, 57.000000, 284.200000, 0.000000, 62.100000, 8000.000000, 264.000000, 0, 0, 0, 0, 49.989735, 75.993172, 70.973671, -3.308036, 14.042350, 0.122800, 0.123480, 0.122280, 0.123040, 0.122840, 0.123560, 0.122040, 0.123520, 0.123520, 0.122120, 0.122160, 0, 1, 0, 0
14:25:55, 51955.886, 1507827, 3, 1, 10.100000, 1.700000, 319.500000, -0.900000, 0.100000, 1.200000, 2.732029, 0.117507, -8.558400, 0.872772, 21.827045, -33.590305, 8377.000000, -28.709634, 7.218569, -0.952147, 57.000000, 284.200000, 0.000000, 62.200000, 8000.000000, 259.000000, 0, 0, 0, 0, 49.989735, 75.993172, 70.973671, -3.308036, 14.042350, 0.122800, 0.123480, 0.122280, 0.123040, 0.122840, 0.123560, 0.122040, 0.123520, 0.123520, 0.122120, 0.122160, 0, 1, 0, 0
14:25:55, 51955.951, 1507892, 3, 1, 10.100000, 1.800000, 319.500000, -0.600000, 0.200000, 1.100000, 2.477432, -0.048961, -8.979466, 0.915711, 21.827045, -33.590305, 8377.000000, -28.709634, 7.218569, -0.952147, 57.000000, 284.200000, 0.000000, 62.300000, 8000.000000, 253.000000, 0, 0, 0, 0, 49.856323, 75.998344, 70.751068, -3.761161, 14.212544, 0.122120, 0.123720, 0.122560, 0.123360, 0.123080, 0.122680, 0.120960, 0.122560, 0.122320, 0.122760, 0.122760, 0, 1, 0, 0
14:25:56, 51956.041, 1507958, 3, 1, 10.000000, 1.800000, 319.600000, -0.600000, 0.400000, 1.200000, 2.800575, 0.137091, -8.822790, 0.899734, 21.826982, -33.590291, 8377.000000, -28.981318, 7.434167, -0.836028, 58.000000, 284.400000, 0.000000, 62.400000, 8000.000000, 248.000000, 0, 0, 0, 0, 49.856323, 75.998344, 70.751068, -3.761161, 14.212544, 0.122120, 0.123720, 0.122560, 0.123360, 0.123080, 0.122680, 0.120960, 0.122560, 0.122320, 0.122760, 0.122760, 0, 1, 0, 0
14:25:56, 51956.106, 1508023, 3, 1, 10.000000, 1.800000, 319.700000, -0.500000, 0.200000, 1.000000, 2.399094, 0.048961, -9.194895, 0.937680, 21.826982, -33.590291, 8377.000000, -28.981318, 7.434167, -0.836028, 58.000000, 284.400000, 0.000000, 62.500000, 8000.000000, 243.000000, 0, 0, 0, 0, 49.353447, 76.339752, 70.044525, -3.886161, 14.334798, 0.123680, 0.123560, 0.123520, 0.123360, 0.123240, 0.122120, 0.122160, 0.123520, 0.122800, 0.122920, 0.121560, 0, 1, 0, 0
14:25:56, 51956.172, 1508089, 3, 1, 9.900000, 1.800000, 319.700000, -0.700000, -0.100000, 0.800000, 2.751614, 0.117507, -9.057804, 0.923700, 21.826982, -33.590291, 8377.000000, -28.981318, 7.434167, -0.836028, 58.000000, 284.400000, 0.000000, 62.500000, 8000.000000, 239.000000, 0, 0, 0, 0, 49.353447, 76.339752, 70.044525, -3.886161, 14.334798, 0.123680, 0.123560, 0.123520, 0.123360, 0.123240, 0.122120, 0.122160, 0.123520, 0.122800, 0.122920, 0.121560, 0, 1, 0, 0
14:25:56, 51956.237, 1508154, 3, 1, 9.900000, 1.800000, 319.800000, -0.800000, -0.400000, 0.500000, 2.291379, 0.156676, -8.969674, 0.914713, 21.826919, -33.590277, 8378.000000, -29.253003, 7.548205, -0.787363, 58.000000, 284.400000, 0.000000, 62.700000, 8000.000000, 232.000000, 0, 0, 0, 0, 49.353447, 76.339752, 70.044525, -3.886161, 14.334798, 0.123680, 0.123560, 0.123520, 0.123360, 0.123240, 0.122120, 0.122160, 0.123520, 0.122800, 0.122920, 0.121560, 0, 1, 0, 0
14:25:56, 51956.303, 1508220, 3, 1, 9.800000, 1.800000, 319.800000, -0.900000, -0.800000, 0.300000, 2.585146, 0.078338, -9.224271, 0.940676, 21.826919, -33.590277, 8378.000000, -29.253003, 7.548205, -0.787363, 58.000000, 284.400000, 0.000000, 62.800000, 8000.000000, 228.000000, 0, 0, 0, 0, 48.953201, 76.329399, 69.144409, -4.011161, 14.051937, 0.123400, 0.122720, 0.122760, 0.122200, 0.122040, 0.122880, 0.120920, 0.123320, 0.122160, 0.122880, 0.122800, 0, 1, 0, 0
14:25:56, 51956.368, 1508285, 3, 1, 9.800000, 1.700000, 319.800000, -1.000000, -0.800000, 0.000000, 2.320756, 0.225221, -8.881544, 0.905725, 21.826919, -33.590277, 8378.000000, -29.253003, 7.548205, -0.787363, 58.000000, 284.400000, 0.000000, 62.800000, 8000.000000, 226.000000, 0, 0, 0, 0, 48.953201, 76.329399, 69.144409, -4.011161, 14.051937, 0.123400, 0.122720, 0.122760, 0.122200, 0.122040, 0.122880, 0.120920, 0.123320, 0.122160, 0.122880, 0.122800, 0, 1, 0, 0
14:25:56, 51956.471, 1508388, 3, 1, 9.700000, 1.600000, 319.800000, -1.000000, -1.600000, -0.400000, 2.506808, 0.107714, -9.008842, 0.918707, 21.826855, -33.590263, 8378.000000, -29.637867, 7.637164, -0.700938, 59.000000, 284.400000, 0.000000, 62.900000, 8000.000000, 219.000000, 0, 0, 0, 0, 48.152710, 76.112144, 68.021683, -3.892857, 13.694766, 0.123560, 0.122160, 0.122200, 0.122840, 0.123400, 0.122080, 0.121200, 0.123160, 0.122600, 0.122840, 0.122520, 0, 1, 0, 0
14:25:56, 51956.499, 1508416, 3, 1, 9.600000, 1.500000, 319.700000, -0.900000, -1.400000, -0.500000, 2.222834, 0.097922, -8.881544, 0.905725, 21.826855, -33.590263, 8378.000000, -29.637867, 7.637164, -0.700938, 59.000000, 284.400000, 0.000000, 63.000000, 8000.000000, 213.000000, 0, 0, 0, 0, 48.152710, 76.112144, 68.021683, -3.892857, 13.694766, 0.123560, 0.122160, 0.122200, 0.122840, 0.123400, 0.122080, 0.121200, 0.123160, 0.122600, 0.122840, 0.122520, 0, 1, 0, 0
14:25:56, 51956.565, 1508482, 3, 1, 9.600000, 1.400000, 319.700000, -0.900000, -1.500000, -0.800000, 2.673276, 0.088130, -9.008842, 0.918707, 21.826855, -33.590263, 8378.000000, -29.637867, 7.637164, -0.700938, 59.000000, 284.400000, 0.000000, 63.100000, 8000.000000, 208.000000, 0, 0, 0, 0, 47.742199, 76.272507, 66.966705, -3.727679, 13.862564, 0.122800, 0.122880, 0.122480, 0.121880, 0.122880, 0.122640, 0.122000, 0.123400, 0.123680, 0.121520, 0.122960, 0, 1, 0, 0
14:25:56, 51956.630, 1508547, 3, 1, 9.500000, 1.300000, 319.600000, -0.800000, -1.200000, -0.900000, 2.477432, 0.156676, -8.812998, 0.898735, 21.826790, -33.590248, 8379.000000, -29.983176, 7.807549, -0.737116, 60.000000, 284.600000, 0.000000, 63.200000, 8000.000000, 205.000000, 0, 0, 0, 0, 47.742199, 76.272507, 66.966705, -3.727679, 13.862564, 0.122800, 0.122880, 0.122480, 0.121880, 0.122880, 0.122640, 0.122000, 0.123400, 0.123680, 0.121520, 0.122960, 0, 1, 0, 0
14:25:56, 51956.696, 1508613, 3, 1, 9.500000, 1.200000, 319.500000, -0.700000, -1.400000, -1.200000, 2.643899, 0.039169, -9.106765, 0.928693, 21.826790, -33.590248, 8379.000000, -29.983176, 7.807549, -0.737116, 60.000000, 284.600000, 0.000000, 63.300000, 8000.000000, 200.000000, 0, 0, 0, 0, 47.742199, 76.272507, 66.966705, -3.727679, 13.862564, 0.122800, 0.122880, 0.122480, 0.121880, 0.122880, 0.122640, 0.122000, 0.123400, 0.123680, 0.121520, 0.122960, 0, 1, 0, 0
14:25:56, 51956.761, 1508678, 3, 1, 9.400000, 1.000000, 319.400000, -0.700000, -1.600000, -1.400000, 2.594938, 0.137091, -8.959881, 0.913714, 21.826790, -33.590248, 8379.000000, -29.983176, 7.807549, -0.737116, 60.000000, 284.600000, 0.000000, 63.400000, 8000.000000, 198.000000, 0, 0, 0, 0, 47.844826, 76.086281, 66.850563, -3.544643, 13.864963, 0.123120, 0.122800, 0.123600, 0.122800, 0.122080, 0.123280, 0.121640, 0.123280, 0.123440, 0.122720, 0.122880, 0, 1, 0, 0
14:25:56, 51956.827, 1508744, 3, 1, 9.400000, 0.900000, 319.300000, -0.400000, -1.800000, -1.500000, 2.526393, 0.068546, -9.077388, 0.925697, 21.826724, -33.590233, 8380.000000, -30.141680, 8.073619, -0.641899, 60.000000, 284.900000, 0.000000, 63.500000, 8000.000000, 192.000000, 0, 0, 0, 0, 47.844826, 76.086281, 66.850563, -3.544643, 13.864963, 0.123120, 0.122800, 0.123600, 0.122800, 0.122080, 0.123280, 0.121640, 0.123280, 0.123440, 0.122720, 0.122880, 0, 1, 0, 0
14:25:56, 51956.892, 1508809, 3, 1, 9.400000, 0.800000, 319.200000, -0.500000, -1.900000, -1.400000, 2.653692, 0.107714, -8.979466, 0.915711, 21.826724, -33.590233, 8380.000000, -30.141680, 8.073619, -0.641899, 60.000000, 284.900000, 0.000000, 63.600000, 8000.000000, 187.000000, 0, 0, 0, 0, 48.245075, 75.936272, 67.557106, -3.386161, 13.910507, 0.123000, 0.122640, 0.123760, 0.123360, 0.123440, 0.123320, 0.122000, 0.123720, 0.123200, 0.123600, 0.122600, 0, 1, 0, 0
14:25:56, 51956.958, 1508875, 3, 1, 9.400000, 0.600000, 319.200000, -0.100000, -1.800000, -1.300000, 2.428471, 0.000000, -9.057804, 0.923700, 21.826724, -33.590233, 8380.000000, -30.141680, 8.073619, -0.641899, 60.000000, 284.900000, 0.000000, 63.600000, 8000.000000, 180.000000, 0, 0, 0, 0, 48.245075, 75.936272, 67.557106, -3.386161, 13.910507, 0.123000, 0.122640, 0.123760, 0.123360, 0.123440, 0.123320, 0.122000, 0.123720, 0.123200, 0.123600, 0.122600, 0, 1, 0, 0
14:25:57, 51957.045, 1508948, 3, 1, 9.300000, 0.500000, 319.100000, -0.300000, -1.400000, -1.200000, 2.683068, 0.039169, -9.106765, 0.928693, 21.826659, -33.590218, 8380.000000, -30.300184, 8.111176, -0.698450, 61.000000, 284.900000, 0.000000, 63.700000, 7999.000000, 172.000000, 0, 0, 0, 0, 49.373974, 76.096626, 68.070076, -3.160714, 13.773871, 0.123640, 0.122880, 0.122120, 0.123320, 0.123360, 0.123280, 0.121080, 0.122680, 0.123120, 0.122560, 0.121240, 0, 1, 0, 0
14:25:57, 51957.168, 1509071, 3, 1, 9.300000, 0.300000, 318.900000, -0.100000, -0.900000, -1.000000, 2.722237, -0.039169, -9.263440, 0.944671, 21.826659, -33.590218, 8380.000000, -30.300184, 8.111176, -0.698450, 61.000000, 284.900000, 0.000000, 63.900000, 7999.000000, 159.000000, 0, 0, 0, 0, 49.373974, 76.096626, 68.070076, -3.160714, 13.773871, 0.123640, 0.122880, 0.122120, 0.123320, 0.123360, 0.123280, 0.121080, 0.122680, 0.123120, 0.122560, 0.121240, 0, 1, 0, 0
14:25:57, 51957.239, 1509142, 3, 1, 9.300000, 0.300000, 318.900000, 0.000000, -0.600000, -0.900000, 2.428471, -0.019584, -9.116557, 0.929692, 21.826592, -33.590203, 8381.000000, -30.583200, 8.240870, -0.673359, 61.000000, 285.000000, 0.000000, 64.000000, 7999.000000, 151.000000, 0, 0, 0, 0, 50.424019, 76.200081, 68.060394, -3.109375, 13.661206, 0.122840, 0.123760, 0.123600, 0.123360, 0.122920, 0.123600, 0.121600, 0.123080, 0.123560, 0.122640, 0.121560, 0, 1, 0, 0
14:25:57, 51957.299, 1509202, 3, 1, 9.300000, 0.200000, 318.800000, 0.000000, -0.400000, -0.800000, 2.712445, -0.078338, -9.469077, 0.965641, 21.826592, -33.590203, 8381.000000, -30.583200, 8.240870, -0.673359, 61.000000, 285.000000, 0.000000, 64.100000, 7999.000000, 148.000000, 0, 0, 0, 0, 50.424019, 76.200081, 68.060394, -3.109375, 13.661206, 0.122840, 0.123760, 0.123600, 0.123360, 0.122920, 0.123600, 0.121600, 0.123080, 0.123560, 0.122640, 0.121560, 0, 1, 0, 0
14:25:57, 51957.365, 1509268, 3, 1, 9.300000, 0.200000, 318.800000, 0.000000, -0.200000, -0.700000, 2.418678, 0.019584, -9.224271, 0.940676, 21.826592, -33.590203, 8381.000000, -30.583200, 8.240870, -0.673359, 61.000000, 285.000000, 0.000000, 64.200000, 7999.000000, 147.000000, 0, 0, 0, 0, 50.664680, 76.262154, 67.682922, -2.660714, 13.603676, 0.123800, 0.123480, 0.123880, 0.123120, 0.122600, 0.122040, 0.120760, 0.123400, 0.121640, 0.122600, 0.122120, 0, 1, 0, 0
14:25:57, 51957.440, 1509343, 3, 1, 9.300000, 0.200000, 318.700000, 0.000000, -0.100000, -0.700000, 2.614523, -0.117507, -9.635544, 0.982617, 21.826526, -33.590187, 8382.000000, -30.741704, 8.379989, -0.662459, 62.000000, 285.200000, 0.000000, 64.300000, 7999.000000, 140.000000, 0, 0, 0, 0, 50.664680, 76.262154, 67.682922, -2.660714, 13.603676, 0.123800, 0.123480, 0.123880, 0.123120, 0.122600, 0.122040, 0.120760, 0.123400, 0.121640, 0.122600, 0.122120, 0, 1, 0, 0
14:25:57, 51957.496, 1509399, 3, 1, 9.300000, 0.200000, 318.700000, -0.100000, 0.000000, -0.600000, 2.467639, 0.029377, -9.204687, 0.938679, 21.826526, -33.590187, 8382.000000, -30.741704, 8.379989, -0.662459, 62.000000, 285.200000, 0.000000, 64.400000, 7999.000000, 135.000000, 0, 0, 0, 0, 50.664680, 76.262154, 67.682922, -2.660714, 13.603676, 0.123800, 0.123480, 0.123880, 0.123120, 0.122600, 0.122040, 0.120760, 0.123400, 0.121640, 0.122600, 0.122120, 0, 1, 0, 0
14:25:57, 51957.561, 1509464, 3, 1, 9.300000, 0.200000, 318.600000, -0.100000, 0.000000, -0.600000, 2.497016, -0.078338, -9.606168, 0.979621, 21.826526, -33.590187, 8382.000000, -30.741704, 8.379989, -0.662459, 62.000000, 285.200000, 0.000000, 64.500000, 7998.000000, 130.000000, 0, 0, 0, 0, 50.366718, 76.370789, 67.228027, -2.899554, 13.817019, 0.123120, 0.122800, 0.123200, 0.122720, 0.122640, 0.123640, 0.121120, 0.123760, 0.122600, 0.122200, 0.122200, 0, 1, 0, 0
14:25:57, 51957.683, 1509586, 3, 1, 9.300000, 0.200000, 318.600000, -0.300000, 0.400000, -0.400000, 2.526393, 0.000000, -9.292817, 0.947666, 21.826459, -33.590172, 8382.000000, -30.900208, 8.417547, -0.719012, 62.000000, 285.200000, 0.000000, 64.600000, 7998.000000, 121.000000, 0, 0, 0, 0, 50.584461, 76.670807, 67.053810, -2.823661, 13.721134, 0.123640, 0.122600, 0.123120, 0.123520, 0.122640, 0.123280, 0.122080, 0.122440, 0.122480, 0.122800, 0.121640, 0, 1, 0, 0
14:25:57, 51957.697, 1509600, 3, 1, 9.300000, 0.200000, 318.600000, -0.400000, 0.200000, -0.300000, 2.320756, -0.019584, -9.439700, 0.962645, 21.826459, -33.590172, 8382.000000, -30.900208, 8.417547, -0.719012, 62.000000, 285.200000, 0.000000, 64.700000, 7998.000000, 117.000000, 0, 0, 0, 0, 50.584461, 76.670807, 67.053810, -2.823661, 13.721134, 0.123640, 0.122600, 0.123120, 0.123520, 0.122640, 0.123280, 0.122080, 0.122440, 0.122480, 0.122800, 0.121640, 0, 1, 0, 0
14:25:57, 51957.758, 1509661, 3, 1, 9.300000, 0.200000, 318.500000, -0.500000, 0.700000, -0.200000, 2.565562, -0.029377, -9.331986, 0.951661, 21.826459, -33.590172, 8382.000000, -30.900208, 8.417547, -0.719012, 62.000000, 285.200000, 0.000000, 64.800000, 7998.000000, 112.000000, 0, 0, 0, 0, 50.584461, 76.670807, 67.053810, -2.823661, 13.721134, 0.123640, 0.122600, 0.123120, 0.123520, 0.122640, 0.123280, 0.122080, 0.122440, 0.122480, 0.122800, 0.121640, 0, 1, 0, 0
14:25:57, 51957.835, 1509738, 3, 1, 9.200000, 0.300000, 318.500000, -0.600000, 0.800000, -0.200000, 2.242418, 0.000000, -9.243856, 0.942673, 21.826392, -33.590157, 8382.000000, -31.126562, 8.367410, -0.643524, 62.000000, 285.100000, 0.000000, 64.900000, 7998.000000, 106.000000, 0, 0, 0, 0, 50.825119, 76.877716, 67.034454, -2.589286, 13.666000, 0.123920, 0.122800, 0.123640, 0.122760, 0.122080, 0.122600, 0.121080, 0.123440, 0.122480, 0.121480, 0.123120, 0, 1, 0, 0
14:25:57, 51957.889, 1509792, 3, 1, 9.200000, 0.400000, 318.500000, -0.800000, 1.200000, 0.000000, 2.624315, -0.048961, -9.449492, 0.963644, 21.826392, -33.590157, 8382.000000, -31.126562, 8.367410, -0.643524, 62.000000, 285.100000, 0.000000, 65.000000, 7997.000000, 99.000000, 0, 0, 0, 0, 50.825119, 76.877716, 67.034454, -2.589286, 13.666000, 0.123920, 0.122800, 0.123640, 0.122760, 0.122080, 0.122600, 0.121080, 0.123440, 0.122480, 0.121480, 0.123120, 0, 1, 0, 0
14:25:57, 51957.954, 1509857, 3, 1, 9.100000, 0.400000, 318.500000, -0.900000, 1.000000, 0.000000, 2.242418, 0.068546, -9.185102, 0.936682, 21.826392, -33.590157, 8382.000000, -31.126562, 8.367410, -0.643524, 62.000000, 285.100000, 0.000000, 65.100000, 7997.000000, 92.000000, 0, 0, 0, 0, 50.825119, 76.877716, 67.034454, -2.589286, 13.666000, 0.123920, 0.122800, 0.123640, 0.122760, 0.122080, 0.122600, 0.121080, 0.123440, 0.122480, 0.121480, 0.123120, 0, 1, 0, 0
14:25:58, 51958.015, 1509935, 3, 1, 9.000000, 0.500000, 318.500000, -1.000000, 1.100000, 0.000000, 2.653692, -0.058753, -9.537622, 0.972631, 21.826325, -33.590142, 8383.000000, -31.426540, 8.475182, -0.585426, 63.000000, 285.000000, 0.000000, 65.100000, 7997.000000, 85.000000, 0, 0, 0, 0, 51.054321, 76.939789, 66.879593, -2.334821, 13.455054, 0.122680, 0.122680, 0.122640, 0.123440, 0.122840, 0.122160, 0.121120, 0.124000, 0.123200, 0.122600, 0.122240, 0, 1, 0, 0
14:25:58, 51958.068, 1509988, 3, 1, 9.000000, 0.600000, 318.500000, -1.100000, 1.000000, 0.000000, 2.281587, 0.146883, -8.910920, 0.908721, 21.826325, -33.590142, 8383.000000, -31.426540, 8.475182, -0.585426, 63.000000, 285.000000, 0.000000, 65.200000, 7996.000000, 75.000000, 0, 0, 0, 0, 51.054321, 76.939789, 66.879593, -2.334821, 13.455054, 0.122680, 0.122680, 0.122640, 0.123440, 0.122840, 0.122160, 0.121120, 0.124000, 0.123200, 0.122600, 0.122240, 0, 1, 0, 0
14:25:58, 51958.134, 1510054, 3, 1, 8.900000, 0.600000, 318.500000, -1.100000, 0.500000, 0.000000, 2.575354, -0.088130, -9.547415, 0.973630, 21.826325, -33.590142, 8383.000000, -31.426540, 8.475182, -0.585426, 63.000000, 285.000000, 0.000000, 65.300000, 7996.000000, 66.000000, 0, 0, 0, 0, 50.997021, 76.748398, 67.140923, -2.417411, 13.212944, 0.122440, 0.122760, 0.122200, 0.123560, 0.123160, 0.122120, 0.122160, 0.122560, 0.122760, 0.121240, 0.122160, 0, 1, 0, 0
14:25:58, 51958.219, 1510139, 3, 1, 8.800000, 0.600000, 318.500000, -0.900000, 0.300000, 0.000000, 2.379509, 0.068546, -8.979466, 0.915711, 21.826257, -33.590127, 8383.000000, -31.539714, 8.450124, -0.547699, 63.000000, 285.000000, 0.000000, 65.400000, 7996.000000, 57.000000, 0, 0, 0, 0, 50.997021, 76.748398, 67.140923, -2.417411, 13.212944, 0.122440, 0.122760, 0.122200, 0.123560, 0.123160, 0.122120, 0.122160, 0.122560, 0.122760, 0.121240, 0.122160, 0, 1, 0, 0
14:25:58, 51958.265, 1510185, 3, 1, 8.800000, 0.700000, 318.500000, -1.000000, 0.400000, 0.000000, 2.506808, -0.117507, -9.469077, 0.965641, 21.826257, -33.590127, 8383.000000, -31.539714, 8.450124, -0.547699, 63.000000, 285.000000, 0.000000, 65.400000, 7995.000000, 47.000000, 0, 0, 0, 0, 50.997021, 76.748398, 67.140923, -2.417411, 13.212944, 0.122440, 0.122760, 0.122200, 0.123560, 0.123160, 0.122120, 0.122160, 0.122560, 0.122760, 0.121240, 0.122160, 0, 1, 0, 0
14:25:58, 51958.330, 1510250, 3, 1, 8.700000, 0.700000, 318.500000, -0.700000, 0.300000, 0.000000, 2.516601, 0.000000, -9.106765, 0.928693, 21.826257, -33.590127, 8383.000000, -31.539714, 8.450124, -0.547699, 63.000000, 285.000000, 0.000000, 65.500000, 7995.000000, 40.000000, 0, 0, 0, 0, 50.951180, 76.758743, 66.995743, -2.053571, 13.210547, 0.122560, 0.123200, 0.122880, 0.123160, 0.122760, 0.122800, 0.121320, 0.121880, 0.123240, 0.122840, 0.121880, 0, 1, 0, 0
14:25:58, 51958.412, 1510332, 3, 1, 8.700000, 0.700000, 318.500000, -0.900000, 0.200000, 0.200000, 2.408886, -0.048961, -9.361362, 0.954657, 21.826189, -33.590111, 8383.000000, -31.539708, 8.450145, -0.547733, 63.000000, 285.100000, 0.000000, 65.600000, 7995.000000, 34.000000, 0, 0, 0, 0, 50.951180, 76.758743, 66.995743, -2.053571, 13.210547, 0.122560, 0.123200, 0.122880, 0.123160, 0.122760, 0.122800, 0.121320, 0.121880, 0.123240, 0.122840, 0.121880, 0, 1, 0, 0
14:25:58, 51958.461, 1510381, 3, 1, 8.600000, 0.700000, 318.600000, -0.600000, 0.300000, 0.200000, 2.585146, -0.097922, -9.390739, 0.957652, 21.826189, -33.590111, 8383.000000, -31.698217, 8.589245, -0.536802, 63.000000, 285.100000, 0.000000, 65.700000, 7994.000000, 28.000000, 0, 0, 0, 0, 50.893879, 76.629425, 66.976379, -2.290179, 13.121854, 0.123480, 0.122120, 0.123480, 0.123080, 0.123280, 0.123520, 0.120440, 0.123440, 0.121960, 0.122000, 0.122240, 0, 1, 0, 0
14:25:58, 51958.527, 1510447, 3, 1, 8.600000, 0.800000, 318.600000, -0.700000, 0.600000, 0.300000, 2.418678, -0.039169, -9.175310, 0.935683, 21.826189, -33.590111, 8383.000000, -31.698217, 8.589245, -0.536802, 63.000000, 285.100000, 0.000000, 65.800000, 7994.000000, 21.000000, 0, 0, 0, 0, 50.893879, 76.629425, 66.976379, -2.290179, 13.121854, 0.123480, 0.122120, 0.123480, 0.123080, 0.123280, 0.123520, 0.120440, 0.123440, 0.121960, 0.122000, 0.122240, 0, 1, 0, 0
14:25:58, 51958.592, 1510512, 3, 1, 8.600000, 0.800000, 318.600000, -0.400000, 0.900000, 0.400000, 2.614523, -0.137091, -9.576791, 0.976626, 21.826189, -33.590111, 8383.000000, -31.698217, 8.589245, -0.536802, 63.000000, 285.100000, 0.000000, 65.900000, 7993.000000, 13.000000, 0, 0, 0, 0, 50.974102, 76.412163, 66.869919, -2.158482, 12.997204, 0.122720, 0.122760, 0.123080, 0.123400, 0.122560, 0.122600, 0.121080, 0.123240, 0.123440, 0.122800, 0.123280, 0, 1, 0, 0
14:25:58, 51958.658, 1510578, 3, 1, 8.500000, 0.900000, 318.700000, -0.400000, 0.800000, 0.400000, 2.438263, -0.009792, -9.185102, 0.936682, 21.826121, -33.590096, 8383.000000, -31.969901, 8.601726, -0.555598, 64.000000, 285.100000, 0.000000, 66.000000, 7993.000000, 6.000000, 0, 0, 0, 0, 50.974102, 76.412163, 66.869919, -2.158482, 12.997204, 0.122720, 0.122760, 0.123080, 0.123400, 0.122560, 0.122600, 0.121080, 0.123240, 0.123440, 0.122800, 0.123280, 0, 1, 0, 0
14:25:58, 51958.723, 1510643, 3, 1, 8.500000, 1.000000, 318.700000, -0.100000, 1.000000, 0.500000, 2.673276, -0.186052, -9.802012, 0.999593, 21.826121, -33.590096, 8383.000000, -31.969901, 8.601726, -0.555598, 64.000000, 285.100000, 0.000000, 66.100000, 7993.000000, 1.000000, 0, 0, 0, 0, 50.974102, 76.412163, 66.869919, -2.158482, 12.997204, 0.122720, 0.122760, 0.123080, 0.123400, 0.122560, 0.122600, 0.121080, 0.123240, 0.123440, 0.122800, 0.123280, 0, 1, 0, 0
14:25:58, 51958.789, 1510709, 3, 1, 8.500000, 1.100000, 318.700000, 0.000000, 1.100000, 0.600000, 2.448055, 0.009792, -9.204687, 0.938679, 21.826121, -33.590096, 8383.000000, -31.969901, 8.601726, -0.555598, 64.000000, 285.100000, 0.000000, 66.200000, 7993.000000, -1.000000, 0, 0, 0, 0, 51.226219, 76.432861, 67.121567, -1.957589, 12.831801, 0.123600, 0.122760, 0.122280, 0.122760, 0.123520, 0.122120, 0.121680, 0.122640, 0.123360, 0.122720, 0.122160, 0, 1, 0, 0
14:25:58, 51958.854, 1510774, 3, 1, 8.500000, 1.200000, 318.800000, -0.100000, 1.500000, 0.800000, 2.594938, -0.166468, -9.792220, 0.998595, 21.826052, -33.590080, 8383.000000, -32.128403, 8.740847, -0.544702, 64.000000, 285.100000, 0.000000, 66.400000, 7992.000000, -8.000000, 0, 0, 0, 0, 51.226219, 76.432861, 67.121567, -1.957589, 12.831801, 0.123600, 0.122760, 0.122280, 0.122760, 0.123520, 0.122120, 0.121680, 0.122640, 0.123360, 0.122720, 0.122160, 0, 1, 0, 0
14:25:58, 51958.920, 1510840, 3, 1, 8.500000, 1.200000, 318.800000, -0.100000, 1.100000, 0.800000, 2.438263, 0.058753, -9.234063, 0.941675, 21.826052, -33.590080, 8383.000000, -32.128403, 8.740847, -0.544702, 64.000000, 285.100000, 0.000000, 66.500000, 7992.000000, -13.000000, 0, 0, 0, 0, 50.974102, 76.474243, 66.869919, -1.935268, 12.958850, 0.123440, 0.123640, 0.122600, 0.123480, 0.122880, 0.122080, 0.120760, 0.123560, 0.123080, 0.122800, 0.122480, 0, 1, 0, 0
14:25:58, 51958.985, 1510905, 3, 1, 8.500000, 1.300000, 318.900000, -0.100000, 1.400000, 0.900000, 2.497016, -0.137091, -9.694298, 0.988609, 21.826052, -33.590080, 8383.000000, -32.128403, 8.740847, -0.544702, 64.000000, 285.100000, 0.000000, 66.600000, 7992.000000, -19.000000, 0, 0, 0, 0, 50.974102, 76.474243, 66.869919, -1.935268, 12.958850, 0.123440, 0.123640, 0.122600, 0.123480, 0.122880, 0.122080, 0.120760, 0.123560, 0.123080, 0.122800, 0.122480, 0, 1, 0, 0
14:25:59, 51959.048, 1510985, 3, 1, 8.500000, 1.500000, 319.000000, 0.000000, 1.400000, 0.900000, 2.448055, 0.068546, -9.351570, 0.953658, 21.825983, -33.590065, 8383.000000, -32.354758, 8.690713, -0.469218, 65.000000, 285.100000, 0.000000, 66.700000, 7991.000000, -25.000000, 0, 0, 0, 0, 50.939720, 76.469070, 66.415024, -2.446429, 12.918098, 0.123680, 0.123600, 0.123200, 0.123360, 0.122800, 0.122960, 0.123520, 0.122240, 0.123240, 0.122880, 0.122800, 0, 1, 0, 0
14:25:59, 51959.099, 1511036, 3, 1, 8.500000, 1.600000, 319.000000, -0.100000, 1.400000, 0.900000, 2.418678, -0.058753, -9.655129, 0.984614, 21.825983, -33.590065, 8383.000000, -32.354758, 8.690713, -0.469218, 65.000000, 285.100000, 0.000000, 66.700000, 7991.000000, -31.000000, 0, 0, 0, 0, 50.939720, 76.469070, 66.415024, -2.446429, 12.918098, 0.123680, 0.123600, 0.123200, 0.123360, 0.122800, 0.122960, 0.123520, 0.122240, 0.123240, 0.122880, 0.122800, 0, 1, 0, 0
14:25:59, 51959.165, 1511102, 3, 1, 8.500000, 1.600000, 319.100000, -0.100000, 1.300000, 0.800000, 2.506808, 0.058753, -9.557207, 0.974628, 21.825983, -33.590065, 8383.000000, -32.354758, 8.690713, -0.469218, 65.000000, 285.100000, 0.000000, 66.800000, 7991.000000, -37.000000, 0, 0, 0, 0, 50.939720, 76.469070, 66.415024, -2.446429, 12.918098, 0.123680, 0.123600, 0.123200, 0.123360, 0.122800, 0.122960, 0.123520, 0.122240, 0.123240, 0.122880, 0.122800, 0, 1, 0, 0
14:25:59, 51959.230, 1511167, 3, 1, 8.500000, 1.800000, 319.100000, -0.300000, 1.400000, 0.800000, 2.340341, 0.048961, -9.351570, 0.953658, 21.825914, -33.590049, 8382.000000, -32.354752, 8.792296, -0.401801, 65.000000, 285.100000, 0.000000, 66.900000, 7990.000000, -45.000000, 0, 0, 0, 0, 50.676140, 76.381126, 65.960121, -2.598214, 12.994806, 0.122440, 0.122960, 0.122880, 0.122800, 0.123520, 0.123280, 0.122280, 0.123440, 0.123680, 0.122720, 0.123120, 0, 1, 0, 0
14:25:59, 51959.296, 1511233, 3, 1, 8.400000, 1.900000, 319.200000, -0.300000, 1.400000, 0.700000, 2.516601, 0.039169, -9.772636, 0.996598, 21.825914, -33.590049, 8382.000000, -32.354752, 8.792296, -0.401801, 65.000000, 285.100000, 0.000000, 66.900000, 7990.000000, -50.000000, 0, 0, 0, 0, 50.676140, 76.381126, 65.960121, -2.598214, 12.994806, 0.122440, 0.122960, 0.122880, 0.122800, 0.123520, 0.123280, 0.122280, 0.123440, 0.123680, 0.122720, 0.123120, 0, 1, 0, 0
14:25:59, 51959.361, 1511298, 3, 1, 8.400000, 2.000000, 319.200000, -0.200000, 1.500000, 0.600000, 2.301172, 0.195844, -9.224271, 0.940676, 21.825914, -33.590049, 8382.000000, -32.354752, 8.792296, -0.401801, 65.000000, 285.100000, 0.000000, 67.000000, 7990.000000, -54.000000, 0, 0, 0, 0, 50.573002, 76.360435, 65.534264, -2.627232, 12.922893, 0.123880, 0.123600, 0.123120, 0.123280, 0.123480, 0.123680, 0.122240, 0.123360, 0.122760, 0.121200, 0.121400, 0, 1, 0, 0
14:25:59, 51959.427, 1511364, 3, 1, 8.400000, 2.100000, 319.300000, -0.200000, 1.500000, 0.500000, 2.555769, -0.039169, -9.958688, 1.015571, 21.825844, -33.590034, 8382.000000, -32.626435, 8.804779, -0.420599, 65.000000, 285.200000, 0.000000, 67.100000, 7989.000000, -60.000000, 0, 0, 0, 0, 50.573002, 76.360435, 65.534264, -2.627232, 12.922893, 0.123880, 0.123600, 0.123120, 0.123280, 0.123480, 0.123680, 0.122240, 0.123360, 0.122760, 0.121200, 0.121400, 0, 1, 0, 0
14:25:59, 51959.492, 1511429, 3, 1, 8.400000, 2.200000, 319.300000, -0.200000, 1.700000, 0.500000, 2.369717, 0.137091, -9.224271, 0.940676, 21.825844, -33.590034, 8382.000000, -32.626435, 8.804779, -0.420599, 65.000000, 285.200000, 0.000000, 67.200000, 7989.000000, -67.000000, 0, 0, 0, 0, 50.573002, 76.360435, 65.534264, -2.627232, 12.922893, 0.123880, 0.123600, 0.123120, 0.123280, 0.123480, 0.123680, 0.122240, 0.123360, 0.122760, 0.121200, 0.121400, 0, 1, 0, 0
14:25:59, 51959.558, 1511495, 3, 1, 8.400000, 2.300000, 319.300000, -0.100000, 1.700000, 0.300000, 2.516601, -0.039169, -10.017441, 1.021562, 21.825844, -33.590034, 8382.000000, -32.626435, 8.804779, -0.420599, 65.000000, 285.200000, 0.000000, 67.300000, 7989.000000, -69.000000, 0, 0, 0, 0, 50.320881, 76.572525, 64.914825, -2.529018, 12.942070, 0.123080, 0.122880, 0.122920, 0.122560, 0.123400, 0.122600, 0.121400, 0.122520, 0.123320, 0.121320, 0.121560, 0, 1, 0, 0
14:25:59, 51959.623, 1511560, 3, 1, 8.400000, 2.400000, 319.400000, -0.200000, 1.600000, 0.300000, 2.438263, 0.205637, -9.273232, 0.945669, 21.825774, -33.590018, 8382.000000, -32.626428, 8.906362, -0.353183, 65.000000, 285.300000, 0.000000, 67.300000, 7988.000000, -77.000000, 0, 0, 0, 0, 50.320881, 76.572525, 64.914825, -2.529018, 12.942070, 0.123080, 0.122880, 0.122920, 0.122560, 0.123400, 0.122600, 0.121400, 0.122520, 0.123320, 0.121320, 0.121560, 0, 1, 0, 0
14:25:59, 51959.689, 1511626, 3, 1, 8.400000, 2.500000, 319.400000, -0.100000, 1.300000, 0.200000, 2.457847, -0.048961, -9.978272, 1.017568, 21.825774, -33.590018, 8382.000000, -32.626428, 8.906362, -0.353183, 65.000000, 285.300000, 0.000000, 67.400000, 7987.000000, -85.000000, 0, 0, 0, 0, 50.297958, 76.841507, 64.827721, -2.084821, 12.817419, 0.122960, 0.122840, 0.122040, 0.123360, 0.122520, 0.122040, 0.121920, 0.122800, 0.122800, 0.122640, 0.123240, 0, 1, 0, 0
14:25:59, 51959.754, 1511691, 3, 1, 8.400000, 2.600000, 319.400000, -0.300000, 1.300000, 0.100000, 2.467639, 0.156676, -9.341778, 0.952659, 21.825774, -33.590018, 8382.000000, -32.626428, 8.906362, -0.353183, 65.000000, 285.300000, 0.000000, 67.500000, 7987.000000, -90.000000, 0, 0, 0, 0, 50.297958, 76.841507, 64.827721, -2.084821, 12.817419, 0.122960, 0.122840, 0.122040, 0.123360, 0.122520, 0.122040, 0.121920, 0.122800, 0.122800, 0.122640, 0.123240, 0, 1, 0, 0
14:25:59, 51959.821, 1511758, 3, 1, 8.400000, 2.600000, 319.400000, 0.000000, 0.800000, 0.000000, 2.350133, -0.058753, -9.841181, 1.003588, 21.825704, -33.590002, 8382.000000, -32.813226, 9.039216, -0.332849, 66.000000, 285.400000, 0.000000, 67.500000, 7987.000000, -96.000000, 0, 0, 0, 0, 49.743431, 76.815643, 64.643829, -2.216518, 12.616060, 0.123600, 0.123880, 0.122040, 0.122160, 0.123360, 0.123280, 0.122760, 0.123560, 0.122960, 0.122200, 0.121600, 0, 1, 0, 0
14:25:59, 51959.885, 1511822, 3, 1, 8.400000, 2.700000, 319.400000, -0.200000, 0.500000, 0.000000, 2.575354, 0.097922, -9.606168, 0.979621, 21.825704, -33.590002, 8382.000000, -32.813226, 9.039216, -0.332849, 66.000000, 285.400000, 0.000000, 67.600000, 7986.000000, -102.000000, 0, 0, 0, 0, 49.743431, 76.815643, 64.643829, -2.216518, 12.616060, 0.123600, 0.123880, 0.122040, 0.122160, 0.123360, 0.123280, 0.122760, 0.123560, 0.122960, 0.122200, 0.121600, 0, 1, 0, 0
14:25:59, 51959.951, 1511888, 3, 1, 8.400000, 2.700000, 319.400000, 0.000000, -0.100000, -0.100000, 2.310964, -0.019584, -9.802012, 0.999593, 21.825704, -33.590002, 8382.000000, -32.813226, 9.039216, -0.332849, 66.000000, 285.400000, 0.000000, 67.700000, 7986.000000, -111.000000, 0, 0, 0, 0, 49.743431, 76.815643, 64.643829, -2.216518, 12.616060, 0.123600, 0.123880, 0.122040, 0.122160, 0.123360, 0.123280, 0.122760, 0.123560, 0.122960, 0.122200, 0.121600, 0, 1, 0, 0
14:26:00, 51960.041, 1511953, 3, 1, 8.400000, 2.600000, 319.300000, 0.000000, -0.500000, -0.200000, 2.575354, 0.009792, -9.811804, 1.000592, 21.825634, -33.589986, 8382.000000, -32.971728, 9.203729, -0.305094, 66.000000, 285.500000, 0.000000, 67.800000, 7985.000000, -115.000000, 0, 0, 0, 0, 49.004517, 76.717361, 64.537361, -1.779018, 12.699960, 0.123520, 0.123280, 0.122760, 0.123000, 0.123440, 0.123600, 0.122560, 0.122560, 0.123360, 0.123600, 0.122800, 0, 1, 0, 0
14:26:00, 51960.107, 1512019, 3, 1, 8.400000, 2.500000, 319.300000, 0.000000, -0.900000, -0.300000, 2.262003, 0.039169, -9.684506, 0.987610, 21.825634, -33.589986, 8382.000000, -32.971728, 9.203729, -0.305094, 66.000000, 285.500000, 0.000000, 67.900000, 7985.000000, -117.000000, 0, 0, 0, 0, 49.004517, 76.717361, 64.537361, -1.779018, 12.699960, 0.123520, 0.123280, 0.122760, 0.123000, 0.123440, 0.123600, 0.122560, 0.122560, 0.123360, 0.123600, 0.122800, 0, 1, 0, 0
14:26:00, 51960.172, 1512084, 3, 1, 8.400000, 2.400000, 319.300000, 0.000000, -1.500000, -0.400000, 2.565562, -0.039169, -10.125155, 1.032547, 21.825634, -33.589986, 8382.000000, -32.971728, 9.203729, -0.305094, 66.000000, 285.500000, 0.000000, 68.000000, 7985.000000, -120.000000, 0, 0, 0, 0, 48.306648, 76.836334, 63.666279, -2.004464, 12.750299, 0.122440, 0.123480, 0.123640, 0.123360, 0.122280, 0.123240, 0.122400, 0.123000, 0.123760, 0.123400, 0.122160, 0, 1, 0, 0
14:26:00, 51960.271, 1512183, 3, 1, 8.400000, 2.300000, 319.200000, 0.000000, -2.200000, -0.600000, 2.262003, 0.097922, -9.527830, 0.971633, 21.825563, -33.589969, 8381.000000, -33.084902, 9.280236, -0.199920, 66.000000, 285.600000, 0.000000, 68.100000, 7984.000000, -124.000000, 0, 0, 0, 0, 48.306648, 76.836334, 63.666279, -2.004464, 12.750299, 0.122440, 0.123480, 0.123640, 0.123360, 0.122280, 0.123240, 0.122400, 0.123000, 0.123760, 0.123400, 0.122160, 0, 1, 0, 0
14:26:00, 51960.303, 1512215, 3, 1, 8.400000, 2.100000, 319.200000, 0.000000, -2.200000, -0.600000, 2.545977, -0.195844, -10.438507, 1.064502, 21.825563, -33.589969, 8381.000000, -33.084902, 9.280236, -0.199920, 66.000000, 285.600000, 0.000000, 68.200000, 7984.000000, -130.000000, 0, 0, 0, 0, 48.306648, 76.836334, 63.666279, -2.004464, 12.750299, 0.122440, 0.123480, 0.123640, 0.123360, 0.122280, 0.123240, 0.122400, 0.123000, 0.123760, 0.123400, 0.122160, 0, 1, 0, 0
14:26:00, 51960.373, 1512285, 3, 1, 8.400000, 2.000000, 319.200000, 0.000000, -2.200000, -0.700000, 2.301172, 0.039169, -9.459285, 0.964643, 21.825563, -33.589969, 8381.000000, -33.084902, 9.280236, -0.199920, 66.000000, 285.600000, 0.000000, 68.300000, 7983.000000, -138.000000, 0, 0, 0, 0, 47.885880, 77.053589, 63.279133, -1.709821, 12.743108, 0.122960, 0.123600, 0.123680, 0.123200, 0.122520, 0.122640, 0.122280, 0.123440, 0.122760, 0.123120, 0.122480, 0, 1, 0, 0
14:26:00, 51960.434, 1512346, 3, 1, 8.400000, 1.800000, 319.100000, -0.100000, -2.000000, -0.600000, 2.457847, -0.235013, -10.418922, 1.062505, 21.825491, -33.589953, 8381.000000, -33.254736, 9.333453, -0.280050, 67.000000, 285.700000, 0.000000, 68.400000, 7983.000000, -142.000000, 0, 0, 0, 0, 47.885880, 77.053589, 63.279133, -1.709821, 12.743108, 0.122960, 0.123600, 0.123680, 0.123200, 0.122520, 0.122640, 0.122280, 0.123440, 0.122760, 0.123120, 0.122480, 0, 1, 0, 0
14:26:00, 51960.500, 1512412, 3, 1, 8.400000, 1.700000, 319.100000, -0.300000, -1.400000, -0.500000, 2.369717, 0.000000, -9.410323, 0.959650, 21.825491, -33.589953, 8381.000000, -33.254736, 9.333453, -0.280050, 67.000000, 285.700000, 0.000000, 68.400000, 7982.000000, -151.000000, 0, 0, 0, 0, 48.162971, 77.048416, 63.288811, -1.569196, 12.836596, 0.123720, 0.123560, 0.122960, 0.122680, 0.123320, 0.123560, 0.121080, 0.122560, 0.123280, 0.122440, 0.121440, 0, 1, 0, 0
14:26:00, 51960.565, 1512477, 3, 1, 8.300000, 1.600000, 319.100000, -0.300000, -1.000000, -0.300000, 2.330548, -0.146883, -10.105571, 1.030550, 21.825491, -33.589953, 8381.000000, -33.254736, 9.333453, -0.280050, 67.000000, 285.700000, 0.000000, 68.500000, 7982.000000, -156.000000, 0, 0, 0, 0, 48.162971, 77.048416, 63.288811, -1.569196, 12.836596, 0.123720, 0.123560, 0.122960, 0.122680, 0.123320, 0.123560, 0.121080, 0.122560, 0.123280, 0.122440, 0.121440, 0, 1, 0, 0
14:26:00, 51960.631, 1512543, 3, 1, 8.300000, 1.600000, 319.000000, -0.500000, -0.400000, -0.200000, 2.389302, -0.009792, -9.498453, 0.968637, 21.825420, -33.589936, 8381.000000, -33.367910, 9.308398, -0.242329, 67.000000, 285.600000, 0.000000, 68.700000, 7982.000000, -159.000000, 0, 0, 0, 0, 48.696632, 77.301880, 63.027489, -1.363839, 12.642429, 0.122800, 0.123400, 0.122640, 0.123120, 0.122880, 0.123440, 0.120160, 0.122080, 0.122080, 0.123160, 0.123560, 0, 1, 0, 0
14:26:00, 51960.696, 1512608, 3, 1, 8.300000, 1.600000, 319.000000, -0.700000, -0.300000, -0.100000, 2.193457, -0.088130, -9.645337, 0.983616, 21.825420, -33.589936, 8381.000000, -33.367910, 9.308398, -0.242329, 67.000000, 285.600000, 0.000000, 68.700000, 7981.000000, -163.000000, 0, 0, 0, 0, 48.696632, 77.301880, 63.027489, -1.363839, 12.642429, 0.122800, 0.123400, 0.122640, 0.123120, 0.122880, 0.123440, 0.120160, 0.122080, 0.122080, 0.123160, 0.123560, 0, 1, 0, 0
14:26:00, 51960.762, 1512674, 3, 1, 8.200000, 1.600000, 319.000000, -0.800000, 0.200000, 0.000000, 2.457847, -0.107714, -9.743259, 0.993602, 21.825420, -33.589936, 8381.000000, -33.367910, 9.308398, -0.242329, 67.000000, 285.600000, 0.000000, 68.800000, 7981.000000, -167.000000, 0, 0, 0, 0, 48.696632, 77.301880, 63.027489, -1.363839, 12.642429, 0.122800, 0.123400, 0.122640, 0.123120, 0.122880, 0.123440, 0.120160, 0.122080, 0.122080, 0.123160, 0.123560, 0, 1, 0, 0
14:26:00, 51960.827, 1512739, 3, 1, 8.200000, 1.600000, 319.000000, -0.900000, 0.100000, 0.000000, 2.173873, 0.019584, -9.322193, 0.950662, 21.825348, -33.589919, 8381.000000, -33.639592, 9.422446, -0.193680, 67.000000, 285.700000, 0.000000, 68.900000, 7980.000000, -170.000000, 0, 0, 0, 0, 49.281609, 77.317398, 63.269455, -1.444196, 12.510588, 0.123600, 0.123200, 0.123440, 0.123240, 0.123160, 0.122640, 0.122120, 0.123480, 0.123720, 0.123040, 0.121640, 0, 1, 0, 0
14:26:00, 51960.893, 1512805, 3, 1, 8.100000, 1.600000, 319.000000, -0.900000, 0.200000, 0.100000, 2.477432, -0.058753, -9.792220, 0.998595, 21.825348, -33.589919, 8381.000000, -33.639592, 9.422446, -0.193680, 67.000000, 285.700000, 0.000000, 69.000000, 7980.000000, -174.000000, 0, 0, 0, 0, 49.281609, 77.317398, 63.269455, -1.444196, 12.510588, 0.123600, 0.123200, 0.123440, 0.123240, 0.123160, 0.122640, 0.122120, 0.123480, 0.123720, 0.123040, 0.121640, 0, 1, 0, 0
14:26:00, 51960.958, 1512870, 3, 1, 8.000000, 1.600000, 319.000000, -0.800000, 0.200000, 0.100000, 2.115120, 0.048961, -9.136141, 0.931689, 21.825348, -33.589919, 8381.000000, -33.639592, 9.422446, -0.193680, 67.000000, 285.700000, 0.000000, 69.100000, 7980.000000, -178.000000, 0, 0, 0, 0, 49.558701, 77.301880, 63.114594, -1.542411, 12.445865, 0.123360, 0.122880, 0.122040, 0.122760, 0.122840, 0.123360, 0.121360, 0.123160, 0.123240, 0.121320, 0.121960, 0, 1, 0, 0
14:26:01, 51961.046, 1512945, 3, 1, 8.000000, 1.700000, 319.100000, -0.800000, 0.400000, 0.200000, 2.438263, -0.127299, -10.007649, 1.020564, 21.825276, -33.589902, 8381.000000, -33.798093, 9.561571, -0.182790, 68.000000, 285.700000, 0.000000, 69.200000, 7979.000000, -179.000000, 0, 0, 0, 0, 49.558701, 77.301880, 63.114594, -1.542411, 12.445865, 0.123360, 0.122880, 0.122040, 0.122760, 0.122840, 0.123360, 0.121360, 0.123160, 0.123240, 0.121320, 0.121960, 0, 1, 0, 0
14:26:01, 51961.102, 1513001, 3, 1, 7.900000, 1.700000, 319.100000, -0.800000, 0.100000, 0.100000, 2.183665, 0.097922, -8.959881, 0.913714, 21.825276, -33.589902, 8381.000000, -33.798093, 9.561571, -0.182790, 68.000000, 285.700000, 0.000000, 69.300000, 7979.000000, -181.000000, 0, 0, 0, 0, 49.558701, 77.301880, 63.114594, -1.542411, 12.445865, 0.123360, 0.122880, 0.122040, 0.122760, 0.122840, 0.123360, 0.121360, 0.123160, 0.123240, 0.121320, 0.121960, 0, 1, 0, 0
14:26:01, 51961.168, 1513067, 3, 1, 7.900000, 1.700000, 319.100000, -0.700000, 0.200000, 0.200000, 2.457847, -0.127299, -9.988064, 1.018567, 21.825276, -33.589902, 8381.000000, -33.798093, 9.561571, -0.182790, 68.000000, 285.700000, 0.000000, 69.400000, 7979.000000, -184.000000, 0, 0, 0, 0, 49.373974, 77.281189, 63.056526, -1.687500, 12.373951, 0.123600, 0.122800, 0.123040, 0.122800, 0.123440, 0.122160, 0.122000, 0.122000, 0.123560, 0.123120, 0.123200, 0, 1, 0, 0
14:26:01, 51961.241, 1513140, 3, 1, 7.900000, 1.700000, 319.100000, -0.400000, 0.000000, 0.200000, 2.213042, 0.068546, -9.057804, 0.923700, 21.825203, -33.589885, 8381.000000, -33.911268, 9.536517, -0.145070, 68.000000, 285.700000, 0.000000, 69.500000, 7979.000000, -184.000000, 0, 0, 0, 0, 49.373974, 77.281189, 63.056526, -1.687500, 12.373951, 0.123600, 0.122800, 0.123040, 0.122800, 0.123440, 0.122160, 0.122000, 0.122000, 0.123560, 0.123120, 0.123200, 0, 1, 0, 0
14:26:01, 51961.299, 1513198, 3, 1, 7.800000, 1.700000, 319.100000, -0.400000, 0.200000, 0.200000, 2.340341, -0.107714, -9.850973, 1.004586, 21.825203, -33.589885, 8381.000000, -33.911268, 9.536517, -0.145070, 68.000000, 285.700000, 0.000000, 69.600000, 7978.000000, -187.000000, 0, 0, 0, 0, 49.671593, 77.162216, 63.046844, -1.497768, 12.263683, 0.122880, 0.123400, 0.121680, 0.123440, 0.123160, 0.123600, 0.121480, 0.123240, 0.123160, 0.121680, 0.122080, 0, 1, 0, 0
14:26:01, 51961.364, 1513263, 3, 1, 7.800000, 1.700000, 319.100000, 0.000000, -0.200000, 0.100000, 2.291379, 0.097922, -9.292817, 0.947666, 21.825203, -33.589885, 8381.000000, -33.911268, 9.536517, -0.145070, 68.000000, 285.700000, 0.000000, 69.700000, 7978.000000, -189.000000, 0, 0, 0, 0, 49.671593, 77.162216, 63.046844, -1.497768, 12.263683, 0.122880, 0.123400, 0.121680, 0.123440, 0.123160, 0.123600, 0.121480, 0.123240, 0.123160, 0.121680, 0.122080, 0, 1, 0, 0
14:26:01, 51961.444, 1513343, 3, 1, 7.800000, 1.700000, 319.100000, -0.100000, -0.200000, 0.200000, 2.418678, -0.156676, -10.115363, 1.031548, 21.825131, -33.589869, 8380.000000, -34.069769, 9.675643, -0.134181, 68.000000, 285.800000, 0.000000, 69.800000, 7978.000000, -190.000000, 0, 0, 0, 0, 49.425285, 76.851852, 62.833916, -1.428571, 12.011985, 0.122720, 0.123560, 0.123560, 0.122760, 0.123480, 0.123280, 0.122080, 0.122800, 0.122000, 0.123160, 0.121840, 0, 1, 0, 0
14:26:01, 51961.495, 1513394, 3, 1, 7.900000, 1.700000, 319.200000, 0.300000, -0.300000, 0.100000, 2.379509, 0.000000, -9.674713, 0.986612, 21.825131, -33.589869, 8380.000000, -34.069769, 9.675643, -0.134181, 68.000000, 285.800000, 0.000000, 70.000000, 7977.000000, -191.000000, 0, 0, 0, 0, 49.425285, 76.851852, 62.833916, -1.428571, 12.011985, 0.122720, 0.123560, 0.123560, 0.122760, 0.123480, 0.123280, 0.122080, 0.122800, 0.122000, 0.123160, 0.121840, 0, 1, 0, 0
14:26:01, 51961.561, 1513460, 3, 1, 7.900000, 1.600000, 319.200000, 0.400000, -0.500000, 0.100000, 2.320756, -0.097922, -10.017441, 1.021562, 21.825131, -33.589869, 8380.000000, -34.069769, 9.675643, -0.134181, 68.000000, 285.800000, 0.000000, 70.000000, 7977.000000, -194.000000, 0, 0, 0, 0, 49.425285, 76.851852, 62.833916, -1.428571, 12.011985, 0.122720, 0.123560, 0.123560, 0.122760, 0.123480, 0.123280, 0.122080, 0.122800, 0.122000, 0.123160, 0.121840, 0, 1, 0, 0
14:26:01, 51961.684, 1513583, 3, 1, 7.900000, 1.600000, 319.200000, 0.500000, -0.400000, 0.100000, 2.448055, -0.097922, -10.076194, 1.027554, 21.825059, -33.589852, 8380.000000, -34.069762, 9.777228, -0.066768, 68.000000, 285.900000, 0.000000, 70.100000, 7977.000000, -194.000000, 0, 0, 0, 0, 49.610016, 76.763916, 62.921021, -1.357143, 11.767479, 0.122960, 0.123600, 0.122880, 0.122760, 0.122800, 0.122760, 0.122120, 0.123560, 0.122520, 0.121440, 0.122600, 0, 1, 0, 0
14:26:01, 51961.697, 1513596, 3, 1, 8.000000, 1.600000, 319.200000, 0.500000, -0.500000, 0.100000, 2.271795, -0.048961, -9.880350, 1.007582, 21.825059, -33.589852, 8380.000000, -34.069762, 9.777228, -0.066768, 68.000000, 285.900000, 0.000000, 70.200000, 7977.000000, -194.000000, 0, 0, 0, 0, 49.610016, 76.763916, 62.921021, -1.357143, 11.767479, 0.122960, 0.123600, 0.122880, 0.122760, 0.122800, 0.122760, 0.122120, 0.123560, 0.122520, 0.121440, 0.122600, 0, 1, 0, 0
14:26:01, 51961.757, 1513656, 3, 1, 8.000000, 1.500000, 319.200000, 0.600000, -0.200000, 0.100000, 2.516601, -0.205637, -10.428714, 1.063503, 21.825059, -33.589852, 8380.000000, -34.069762, 9.777228, -0.066768, 68.000000, 285.900000, 0.000000, 70.300000, 7976.000000, -194.000000, 0, 0, 0, 0, 49.589493, 76.846680, 62.824234, -1.397321, 11.937675, 0.123840, 0.123600, 0.123120, 0.123400, 0.122080, 0.123480, 0.121760, 0.123560, 0.123280, 0.122240, 0.122200, 0, 1, 0, 0
14:26:01, 51961.845, 1513744, 3, 1, 8.100000, 1.500000, 319.200000, 0.800000, -0.300000, 0.200000, 2.154288, 0.000000, -9.782428, 0.997596, 21.824986, -33.589836, 8379.000000, -34.211232, 9.745906, -0.019609, 69.000000, 285.800000, 0.000000, 70.400000, 7976.000000, -195.000000, 0, 0, 0, 0, 49.589493, 76.846680, 62.824234, -1.397321, 11.937675, 0.123840, 0.123600, 0.123120, 0.123400, 0.122080, 0.123480, 0.121760, 0.123560, 0.123280, 0.122240, 0.122200, 0, 1, 0, 0
14:26:01, 51961.889, 1513788, 3, 1, 8.100000, 1.500000, 319.200000, 0.600000, -0.100000, 0.200000, 2.487224, -0.283974, -10.722481, 1.093461, 21.824986, -33.589836, 8379.000000, -34.211232, 9.745906, -0.019609, 69.000000, 285.800000, 0.000000, 70.600000, 7976.000000, -194.000000, 0, 0, 0, 0, 49.692120, 77.038071, 62.659698, -1.401786, 11.940071, 0.123600, 0.123640, 0.122600, 0.122760, 0.123400, 0.122640, 0.121640, 0.122360, 0.123680, 0.122960, 0.121880, 0, 1, 0, 0
14:26:01, 51961.954, 1513853, 3, 1, 8.200000, 1.500000, 319.300000, 0.500000, 0.000000, 0.300000, 2.105327, 0.097922, -9.527830, 0.971633, 21.824986, -33.589836, 8379.000000, -34.211232, 9.745906, -0.019609, 69.000000, 285.800000, 0.000000, 70.700000, 7976.000000, -191.000000, 0, 0, 0, 0, 49.692120, 77.038071, 62.659698, -1.401786, 11.940071, 0.123600, 0.123640, 0.122600, 0.122760, 0.123400, 0.122640, 0.121640, 0.122360, 0.123680, 0.122960, 0.121880, 0, 1, 0, 0
14:26:02, 51962.017, 1513935, 3, 1, 8.200000, 1.500000, 319.300000, 0.300000, 0.200000, 0.200000, 2.428471, -0.244806, -10.604974, 1.081478, 21.824914, -33.589819, 8378.000000, -34.211225, 9.745930, -0.019648, 69.000000, 286.000000, 0.000000, 70.800000, 7976.000000, -189.000000, 0, 0, 0, 0, 49.692120, 77.038071, 62.659698, -1.401786, 11.940071, 0.123600, 0.123640, 0.122600, 0.122760, 0.123400, 0.122640, 0.121640, 0.122360, 0.123680, 0.122960, 0.121880, 0, 1, 0, 0
14:26:02, 51962.066, 1513984, 3, 1, 8.300000, 1.500000, 319.300000, 0.300000, 0.200000, 0.200000, 2.095535, 0.156676, -9.351570, 0.953658, 21.824914, -33.589819, 8378.000000, -34.324406, 9.822415, 0.085561, 69.000000, 286.000000, 0.000000, 70.900000, 7976.000000, -188.000000, 0, 0, 0, 0, 49.507389, 77.141525, 62.543556, -1.520089, 12.146224, 0.122800, 0.122600, 0.124120, 0.122760, 0.123240, 0.122400, 0.121600, 0.122840, 0.122640, 0.121880, 0.122080, 0, 1, 0, 0
14:26:02, 51962.131, 1514049, 3, 1, 8.300000, 1.500000, 319.300000, 0.100000, 0.200000, 0.200000, 2.310964, -0.195844, -10.497260, 1.070494, 21.824914, -33.589819, 8378.000000, -34.324406, 9.822415, 0.085561, 69.000000, 286.000000, 0.000000, 71.000000, 7975.000000, -190.000000, 0, 0, 0, 0, 49.507389, 77.141525, 62.543556, -1.520089, 12.146224, 0.122800, 0.122600, 0.124120, 0.122760, 0.123240, 0.122400, 0.121600, 0.122840, 0.122640, 0.121880, 0.122080, 0, 1, 0, 0
14:26:02, 51962.219, 1514137, 3, 1, 8.300000, 1.600000, 319.300000, 0.000000, 0.400000, 0.200000, 2.124912, 0.195844, -9.214479, 0.939678, 21.824841, -33.589802, 8377.000000, -34.437580, 9.797363, 0.123279, 69.000000, 286.000000, 0.000000, 71.100000, 7975.000000, -191.000000, 0, 0, 0, 0, 49.538177, 77.317398, 62.253193, -1.493304, 12.160607, 0.123560, 0.122280, 0.122640, 0.122520, 0.122720, 0.122840, 0.122000, 0.121920, 0.123200, 0.122800, 0.123120, 0, 1, 0, 0
14:26:02, 51962.262, 1514180, 3, 1, 8.300000, 1.700000, 319.400000, -0.200000, 1.100000, 0.300000, 2.193457, -0.117507, -10.183909, 1.038539, 21.824841, -33.589802, 8377.000000, -34.437580, 9.797363, 0.123279, 69.000000, 286.000000, 0.000000, 71.200000, 7975.000000, -194.000000, 0, 0, 0, 0, 49.538177, 77.317398, 62.253193, -1.493304, 12.160607, 0.123560, 0.122280, 0.122640, 0.122520, 0.122720, 0.122840, 0.122000, 0.121920, 0.123200, 0.122800, 0.123120, 0, 1, 0, 0
14:26:02, 51962.328, 1514246, 3, 1, 8.200000, 1.700000, 319.400000, -0.200000, 0.700000, 0.300000, 2.173873, 0.146883, -9.410323, 0.959650, 21.824841, -33.589802, 8377.000000, -34.437580, 9.797363, 0.123279, 69.000000, 286.000000, 0.000000, 71.300000, 7974.000000, -193.000000, 0, 0, 0, 0, 49.538177, 77.317398, 62.253193, -1.493304, 12.160607, 0.123560, 0.122280, 0.122640, 0.122520, 0.122720, 0.122840, 0.122000, 0.121920, 0.123200, 0.122800, 0.123120, 0, 1, 0, 0
14:26:02, 51962.395, 1514313, 3, 1, 8.200000, 1.800000, 319.400000, -0.400000, 1.300000, 0.300000, 2.095535, 0.000000, -9.762843, 0.995599, 21.824841, -33.589802, 8377.000000, -34.437580, 9.797363, 0.123279, 69.000000, 286.000000, 0.000000, 71.400000, 7974.000000, -192.000000, 0, 0, 0, 0, 49.394501, 77.374298, 62.156406, -1.560268, 12.059928, 0.123280, 0.123600, 0.122600, 0.123520, 0.122720, 0.123320, 0.122240, 0.122320, 0.123280, 0.122680, 0.122840, 0, 1, 0, 0
14:26:02, 51962.459, 1514377, 3, 1, 8.200000, 1.900000, 319.400000, -0.400000, 1.500000, 0.300000, 2.291379, 0.088130, -9.596376, 0.978623, 21.824768, -33.589785, 8376.000000, -34.437574, 9.898949, 0.190691, 69.000000, 285.900000, 0.000000, 71.500000, 7974.000000, -190.000000, 0, 0, 0, 0, 49.394501, 77.374298, 62.156406, -1.560268, 12.059928, 0.123280, 0.123600, 0.122600, 0.123520, 0.122720, 0.123320, 0.122240, 0.122320, 0.123280, 0.122680, 0.122840, 0, 1, 0, 0
14:26:02, 51962.524, 1514442, 3, 1, 8.200000, 2.000000, 319.500000, -0.300000, 1.800000, 0.300000, 1.987821, 0.166468, -9.302609, 0.948665, 21.824768, -33.589785, 8376.000000, -34.437574, 9.898949, 0.190691, 69.000000, 285.900000, 0.000000, 71.600000, 7974.000000, -190.000000, 0, 0, 0, 0, 49.599754, 77.322571, 61.672474, -1.667411, 11.726727, 0.124000, 0.122120, 0.123640, 0.123160, 0.122080, 0.122680, 0.121760, 0.123480, 0.122800, 0.123120, 0.122440, 0, 1, 0, 0
14:26:02, 51962.590, 1514508, 3, 1, 8.200000, 2.100000, 319.500000, -0.400000, 1.500000, 0.200000, 2.418678, 0.019584, -9.948896, 1.014572, 21.824768, -33.589785, 8376.000000, -34.437574, 9.898949, 0.190691, 69.000000, 285.900000, 0.000000, 71.700000, 7974.000000, -190.000000, 0, 0, 0, 0, 49.599754, 77.322571, 61.672474, -1.667411, 11.726727, 0.124000, 0.122120, 0.123640, 0.123160, 0.122080, 0.122680, 0.121760, 0.123480, 0.122800, 0.123120, 0.122440, 0, 1, 0, 0
14:26:02, 51962.656, 1514574, 3, 1, 8.100000, 2.200000, 319.500000, -0.500000, 1.500000, 0.100000, 1.978028, 0.235013, -9.038219, 0.921703, 21.824696, -33.589768, 8374.000000, -34.437567, 10.000535, 0.258103, 69.000000, 286.000000, 0.000000, 71.800000, 7973.000000, -193.000000, 0, 0, 0, 0, 49.589493, 77.301880, 61.517616, -1.497768, 11.379145, 0.123280, 0.123400, 0.122600, 0.123480, 0.122840, 0.123280, 0.122400, 0.122720, 0.123040, 0.123200, 0.122680, 0, 1, 0, 0
14:26:02, 51962.721, 1514639, 3, 1, 8.100000, 2.300000, 319.500000, -0.200000, 1.100000, 0.000000, 2.467639, -0.048961, -10.252454, 1.045529, 21.824696, -33.589768, 8374.000000, -34.437567, 10.000535, 0.258103, 69.000000, 286.000000, 0.000000, 71.900000, 7973.000000, -195.000000, 0, 0, 0, 0, 49.589493, 77.301880, 61.517616, -1.497768, 11.379145, 0.123280, 0.123400, 0.122600, 0.123480, 0.122840, 0.123280, 0.122400, 0.122720, 0.123040, 0.123200, 0.122680, 0, 1, 0, 0
14:26:02, 51962.786, 1514704, 3, 1, 8.100000, 2.300000, 319.500000, -0.300000, 1.000000, 0.000000, 2.046574, 0.274182, -8.930505, 0.910718, 21.824696, -33.589768, 8374.000000, -34.437567, 10.000535, 0.258103, 69.000000, 286.000000, 0.000000, 72.000000, 7973.000000, -197.000000, 0, 0, 0, 0, 49.589493, 77.301880, 61.517616, -1.497768, 11.379145, 0.123280, 0.123400, 0.122600, 0.123480, 0.122840, 0.123280, 0.122400, 0.122720, 0.123040, 0.123200, 0.122680, 0, 1, 0, 0
14:26:02, 51962.866, 1514784, 3, 1, 8.100000, 2.400000, 319.500000, 0.000000, 0.500000, -0.100000, 2.183665, -0.283974, -10.869364, 1.108440, 21.824623, -33.589752, 8372.000000, -34.346909, 9.773764, 0.379178, 69.000000, 285.900000, 0.000000, 72.000000, 7972.000000, -199.000000, 0, 0, 0, 0, 49.517651, 77.094971, 61.566010, -1.383929, 11.415102, 0.123880, 0.122600, 0.123320, 0.123480, 0.123200, 0.122720, 0.121800, 0.122120, 0.122080, 0.122280, 0.122680, 0, 1, 0, 0
14:26:02, 51962.917, 1514835, 3, 1, 8.100000, 2.400000, 319.500000, 0.200000, -0.100000, -0.200000, 2.164081, 0.244806, -9.008842, 0.918707, 21.824623, -33.589752, 8372.000000, -34.346909, 9.773764, 0.379178, 69.000000, 285.900000, 0.000000, 72.100000, 7972.000000, -197.000000, 0, 0, 0, 0, 49.517651, 77.094971, 61.566010, -1.383929, 11.415102, 0.123880, 0.122600, 0.123320, 0.123480, 0.123200, 0.122720, 0.121800, 0.122120, 0.122080, 0.122280, 0.122680, 0, 1, 0, 0
14:26:02, 51962.983, 1514901, 3, 1, 8.200000, 2.300000, 319.400000, 0.500000, -0.700000, -0.300000, 2.350133, -0.127299, -10.095779, 1.029551, 21.824623, -33.589752, 8372.000000, -34.346909, 9.773764, 0.379178, 69.000000, 285.900000, 0.000000, 72.100000, 7972.000000, -199.000000, 0, 0, 0, 0, 49.066090, 77.105316, 61.498257, -1.620536, 11.417499, 0.123200, 0.123480, 0.123240, 0.123280, 0.123480, 0.123000, 0.120800, 0.123440, 0.123240, 0.122800, 0.121640, 0, 1, 0, 0
14:26:03, 51963.041, 1514966, 3, 1, 8.200000, 2.300000, 319.400000, 0.400000, -0.500000, -0.300000, 2.134704, -0.009792, -9.753051, 0.994600, 21.824550, -33.589735, 8372.000000, -34.618591, 9.887815, 0.427822, 70.000000, 286.000000, 0.000000, 72.200000, 7972.000000, -204.000000, 0, 0, 0, 0, 49.066090, 77.105316, 61.498257, -1.620536, 11.417499, 0.123200, 0.123480, 0.123240, 0.123280, 0.123480, 0.123000, 0.120800, 0.123440, 0.123240, 0.122800, 0.121640, 0, 1, 0, 0
14:26:03, 51963.107, 1515032, 3, 1, 8.300000, 2.200000, 319.400000, 0.800000, -0.700000, -0.300000, 2.379509, -0.215429, -10.477675, 1.068496, 21.824550, -33.589735, 8372.000000, -34.618591, 9.887815, 0.427822, 70.000000, 286.000000, 0.000000, 72.300000, 7971.000000, -202.000000, 0, 0, 0, 0, 49.066090, 77.105316, 61.498257, -1.620536, 11.417499, 0.123200, 0.123480, 0.123240, 0.123280, 0.123480, 0.123000, 0.120800, 0.123440, 0.123240, 0.122800, 0.121640, 0, 1, 0, 0
14:26:03, 51963.172, 1515097, 3, 1, 8.300000, 2.200000, 319.400000, 0.800000, -0.300000, -0.200000, 2.164081, -0.039169, -9.713882, 0.990606, 21.824550, -33.589735, 8372.000000, -34.618591, 9.887815, 0.427822, 70.000000, 286.000000, 0.000000, 72.400000, 7971.000000, -203.000000, 0, 0, 0, 0, 48.768471, 77.162216, 61.420830, -1.488839, 11.868158, 0.122600, 0.123640, 0.123760, 0.123280, 0.122720, 0.122280, 0.122280, 0.123440, 0.123160, 0.122720, 0.122880, 0, 1, 0, 0
14:26:03, 51963.238, 1515163, 3, 1, 8.400000, 2.200000, 319.400000, 0.900000, 0.000000, -0.200000, 2.448055, -0.332935, -10.624559, 1.083475, 21.824477, -33.589718, 8370.000000, -34.618584, 9.989401, 0.495233, 70.000000, 286.100000, 0.000000, 72.500000, 7971.000000, -202.000000, 0, 0, 0, 0, 48.768471, 77.162216, 61.420830, -1.488839, 11.868158, 0.122600, 0.123640, 0.123760, 0.123280, 0.122720, 0.122280, 0.122280, 0.123440, 0.123160, 0.122720, 0.122880, 0, 1, 0, 0
14:26:03, 51963.303, 1515228, 3, 1, 8.500000, 2.200000, 319.400000, 0.900000, 0.300000, -0.100000, 2.213042, -0.058753, -9.694298, 0.988609, 21.824477, -33.589718, 8370.000000, -34.618584, 9.989401, 0.495233, 70.000000, 286.100000, 0.000000, 72.600000, 7971.000000, -205.000000, 0, 0, 0, 0, 48.850574, 77.100143, 61.372437, -1.109375, 11.712345, 0.123600, 0.122080, 0.122200, 0.123480, 0.122840, 0.123640, 0.121600, 0.122960, 0.123400, 0.121560, 0.122040, 0, 1, 0, 0
14:26:03, 51963.369, 1515294, 3, 1, 8.600000, 2.200000, 319.400000, 1.000000, 0.100000, 0.000000, 2.428471, -0.362312, -10.742065, 1.095458, 21.824477, -33.589718, 8370.000000, -34.618584, 9.989401, 0.495233, 70.000000, 286.100000, 0.000000, 72.700000, 7970.000000, -206.000000, 0, 0, 0, 0, 48.850574, 77.100143, 61.372437, -1.109375, 11.712345, 0.123600, 0.122080, 0.122200, 0.123480, 0.122840, 0.123640, 0.121600, 0.122960, 0.123400, 0.121560, 0.122040, 0, 1, 0, 0
14:26:03, 51963.434, 1515359, 3, 1, 8.600000, 2.200000, 319.400000, 1.000000, 0.200000, 0.000000, 2.242418, -0.009792, -9.635544, 0.982617, 21.824403, -33.589700, 8369.000000, -34.731760, 10.091302, 0.617264, 70.000000, 286.200000, 0.000000, 72.700000, 7970.000000, -209.000000, 0, 0, 0, 0, 49.035305, 77.151871, 61.140148, -0.917411, 11.484618, 0.123600, 0.123320, 0.123560, 0.123360, 0.122880, 0.122720, 0.122240, 0.122560, 0.123240, 0.122640, 0.122360, 0, 1, 0, 0
14:26:03, 51963.500, 1515425, 3, 1, 8.700000, 2.200000, 319.400000, 0.800000, 0.500000, 0.000000, 2.359925, -0.332935, -10.663728, 1.087470, 21.824403, -33.589700, 8369.000000, -34.731760, 10.091302, 0.617264, 70.000000, 286.200000, 0.000000, 72.800000, 7969.000000, -214.000000, 0, 0, 0, 0, 49.035305, 77.151871, 61.140148, -0.917411, 11.484618, 0.123600, 0.123320, 0.123560, 0.123360, 0.122880, 0.122720, 0.122240, 0.122560, 0.123240, 0.122640, 0.122360, 0, 1, 0, 0
14:26:03, 51963.565, 1515490, 3, 1, 8.800000, 2.200000, 319.400000, 0.800000, 0.100000, 0.100000, 2.252211, 0.000000, -9.811804, 1.000592, 21.824403, -33.589700, 8369.000000, -34.731760, 10.091302, 0.617264, 70.000000, 286.200000, 0.000000, 72.900000, 7969.000000, -216.000000, 0, 0, 0, 0, 49.035305, 77.151871, 61.140148, -0.917411, 11.484618, 0.123600, 0.123320, 0.123560, 0.123360, 0.122880, 0.122720, 0.122240, 0.122560, 0.123240, 0.122640, 0.122360, 0, 1, 0, 0
14:26:03, 51963.631, 1515556, 3, 1, 8.800000, 2.300000, 319.400000, 0.600000, 0.200000, 0.200000, 2.242418, -0.283974, -10.389545, 1.059509, 21.824329, -33.589682, 8368.000000, -34.844935, 10.066252, 0.654980, 70.000000, 286.200000, 0.000000, 73.000000, 7969.000000, -219.000000, 0, 0, 0, 0, 49.168716, 77.260498, 61.004646, -0.712054, 11.441470, 0.123200, 0.123520, 0.122960, 0.123280, 0.123360, 0.122720, 0.120160, 0.123520, 0.123480, 0.121520, 0.122040, 0, 1, 0, 0
14:26:03, 51963.696, 1515621, 3, 1, 8.900000, 2.300000, 319.400000, 0.500000, 0.200000, 0.300000, 2.222834, 0.000000, -9.909727, 1.010578, 21.824329, -33.589682, 8368.000000, -34.844935, 10.066252, 0.654980, 70.000000, 286.200000, 0.000000, 73.100000, 7969.000000, -218.000000, 0, 0, 0, 0, 49.168716, 77.260498, 61.004646, -0.712054, 11.441470, 0.123200, 0.123520, 0.122960, 0.123280, 0.123360, 0.122720, 0.120160, 0.123520, 0.123480, 0.121520, 0.122040, 0, 1, 0, 0
14:26:03, 51963.762, 1515687, 3, 1, 8.900000, 2.300000, 319.500000, 0.200000, 0.400000, 0.400000, 2.144496, -0.166468, -10.174117, 1.037540, 21.824329, -33.589682, 8368.000000, -34.844935, 10.066252, 0.654980, 70.000000, 286.200000, 0.000000, 73.100000, 7968.000000, -217.000000, 0, 0, 0, 0, 48.645321, 77.405342, 60.569107, -0.812500, 11.544547, 0.123600, 0.123800, 0.122760, 0.122840, 0.123480, 0.122680, 0.122320, 0.123000, 0.121960, 0.121440, 0.121760, 0, 1, 0, 0
14:26:03, 51963.827, 1515752, 3, 1, 8.900000, 2.300000, 319.500000, 0.100000, 0.200000, 0.500000, 2.213042, -0.009792, -10.007649, 1.020564, 21.824254, -33.589664, 8367.000000, -34.890253, 10.230456, 0.628108, 70.000000, 286.300000, 0.000000, 73.200000, 7968.000000, -217.000000, 0, 0, 0, 0, 48.645321, 77.405342, 60.569107, -0.812500, 11.544547, 0.123600, 0.123800, 0.122760, 0.122840, 0.123480, 0.122680, 0.122320, 0.123000, 0.121960, 0.121440, 0.121760, 0, 1, 0, 0
14:26:03, 51963.894, 1515819, 3, 1, 8.900000, 2.400000, 319.500000, 0.000000, 0.600000, 0.500000, 2.056366, -0.048961, -9.782428, 0.997596, 21.824254, -33.589664, 8367.000000, -34.890253, 10.230456, 0.628108, 70.000000, 286.300000, 0.000000, 73.300000, 7968.000000, -216.000000, 0, 0, 0, 0, 48.645321, 77.503624, 60.162601, -1.049107, 11.657211, 0.123320, 0.123280, 0.123800, 0.123280, 0.122800, 0.123320, 0.121400, 0.123480, 0.123000, 0.122280, 0.123160, 0, 1, 0, 0
14:26:03, 51963.958, 1515883, 3, 1, 8.900000, 2.400000, 319.600000, -0.100000, 0.300000, 0.500000, 2.193457, -0.009792, -10.154532, 1.035543, 21.824254, -33.589664, 8367.000000, -34.890253, 10.230456, 0.628108, 70.000000, 286.300000, 0.000000, 73.300000, 7968.000000, -217.000000, 0, 0, 0, 0, 48.645321, 77.503624, 60.162601, -1.049107, 11.657211, 0.123320, 0.123280, 0.123800, 0.123280, 0.122800, 0.123320, 0.121400, 0.123480, 0.123000, 0.122280, 0.123160, 0, 1, 0, 0
14:26:04, 51964.041, 1515949, 3, 1, 8.900000, 2.400000, 319.600000, -0.100000, 0.500000, 0.600000, 1.987821, 0.029377, -9.645337, 0.983616, 21.824179, -33.589646, 8366.000000, -35.048753, 10.369584, 0.638991, 71.000000, 286.500000, 0.000000, 73.400000, 7967.000000, -217.000000, 0, 0, 0, 0, 48.645321, 77.503624, 60.162601, -1.049107, 11.657211, 0.123320, 0.123280, 0.123800, 0.123280, 0.122800, 0.123320, 0.121400, 0.123480, 0.123000, 0.122280, 0.123160, 0, 1, 0, 0
14:26:04, 51964.106, 1516014, 3, 1, 8.900000, 2.500000, 319.700000, -0.400000, 0.500000, 0.600000, 2.203250, -0.088130, -10.223078, 1.042533, 21.824179, -33.589646, 8366.000000, -35.048753, 10.369584, 0.638991, 71.000000, 286.500000, 0.000000, 73.400000, 7967.000000, -216.000000, 0, 0, 0, 0, 48.470856, 77.607079, 59.978706, -1.004464, 11.777067, 0.122280, 0.122880, 0.122160, 0.122880, 0.122280, 0.123520, 0.120520, 0.123760, 0.122280, 0.121600, 0.122800, 0, 1, 0, 0
14:26:04, 51964.172, 1516080, 3, 1, 8.800000, 2.600000, 319.700000, -0.500000, 1.000000, 0.600000, 1.929067, 0.117507, -9.400531, 0.958651, 21.824179, -33.589646, 8366.000000, -35.048753, 10.369584, 0.638991, 71.000000, 286.500000, 0.000000, 73.500000, 7967.000000, -216.000000, 0, 0, 0, 0, 48.470856, 77.607079, 59.978706, -1.004464, 11.777067, 0.122280, 0.122880, 0.122160, 0.122880, 0.122280, 0.123520, 0.120520, 0.123760, 0.122280, 0.121600, 0.122800, 0, 1, 0, 0
14:26:04, 51964.278, 1516186, 3, 1, 8.800000, 2.600000, 319.700000, -0.500000, 0.800000, 0.600000, 2.242418, -0.127299, -10.330792, 1.053517, 21.824103, -33.589627, 8365.000000, -35.207253, 10.407152, 0.582423, 71.000000, 286.400000, 0.000000, 73.500000, 7967.000000, -215.000000, 0, 0, 0, 0, 48.378487, 77.824333, 60.191635, -1.261161, 11.482222, 0.123480, 0.122680, 0.123120, 0.122840, 0.122600, 0.122080, 0.121760, 0.122840, 0.122240, 0.122480, 0.122200, 0, 1, 0, 0
14:26:04, 51964.303, 1516211, 3, 1, 8.700000, 2.700000, 319.800000, -0.600000, 0.700000, 0.600000, 1.968236, 0.215429, -9.194895, 0.937680, 21.824103, -33.589627, 8365.000000, -35.207253, 10.407152, 0.582423, 71.000000, 286.400000, 0.000000, 73.600000, 7966.000000, -217.000000, 0, 0, 0, 0, 48.378487, 77.824333, 60.191635, -1.261161, 11.482222, 0.123480, 0.122680, 0.123120, 0.122840, 0.122600, 0.122080, 0.121760, 0.122840, 0.122240, 0.122480, 0.122200, 0, 1, 0, 0
14:26:04, 51964.374, 1516282, 3, 1, 8.700000, 2.700000, 319.800000, -0.500000, 0.300000, 0.500000, 2.271795, -0.166468, -10.418922, 1.062505, 21.824103, -33.589627, 8365.000000, -35.207253, 10.407152, 0.582423, 71.000000, 286.400000, 0.000000, 73.700000, 7966.000000, -217.000000, 0, 0, 0, 0, 48.378487, 77.824333, 60.191635, -1.261161, 11.482222, 0.123480, 0.122680, 0.123120, 0.122840, 0.122600, 0.122080, 0.121760, 0.122840, 0.122240, 0.122480, 0.122200, 0, 1, 0, 0
14:26:04, 51964.434, 1516342, 3, 1, 8.700000, 2.700000, 319.900000, -0.600000, 0.100000, 0.500000, 2.026990, 0.235013, -9.106765, 0.928693, 21.824028, -33.589608, 8365.000000, -35.365753, 10.546281, 0.593305, 71.000000, 286.600000, 0.000000, 73.700000, 7966.000000, -216.000000, 0, 0, 0, 0, 48.316914, 77.881233, 59.756096, -0.678571, 10.755894, 0.123800, 0.123160, 0.123520, 0.122760, 0.123240, 0.123640, 0.122080, 0.122960, 0.123080, 0.121720, 0.121440, 0, 1, 0, 0
14:26:04, 51964.499, 1516407, 3, 1, 8.600000, 2.700000, 319.900000, -0.600000, -0.100000, 0.400000, 2.164081, -0.166468, -10.389545, 1.059509, 21.824028, -33.589608, 8365.000000, -35.365753, 10.546281, 0.593305, 71.000000, 286.600000, 0.000000, 73.800000, 7966.000000, -218.000000, 0, 0, 0, 0, 48.316914, 77.881233, 59.756096, -0.678571, 10.755894, 0.123800, 0.123160, 0.123520, 0.122760, 0.123240, 0.123640, 0.122080, 0.122960, 0.123080, 0.121720, 0.121440, 0, 1, 0, 0
14:26:04, 51964.565, 1516473, 3, 1, 8.600000, 2.700000, 319.900000, -0.500000, -0.500000, 0.400000, 2.124912, 0.215429, -9.175310, 0.935683, 21.824028, -33.589608, 8365.000000, -35.365753, 10.546281, 0.593305, 71.000000, 286.600000, 0.000000, 73.800000, 7965.000000, -218.000000, 0, 0, 0, 0, 47.916664, 77.767433, 59.281845, -1.035714, 10.815821, 0.123840, 0.123760, 0.122840, 0.122160, 0.123440, 0.122640, 0.121240, 0.122760, 0.122600, 0.123000, 0.121320, 0, 1, 0, 0
14:26:04, 51964.630, 1516538, 3, 1, 8.600000, 2.600000, 319.900000, -0.200000, -0.700000, 0.200000, 2.105327, -0.127299, -10.027233, 1.022561, 21.823952, -33.589589, 8364.000000, -35.411070, 10.608924, 0.498979, 71.000000, 286.600000, 0.000000, 73.900000, 7965.000000, -217.000000, 0, 0, 0, 0, 47.916664, 77.767433, 59.281845, -1.035714, 10.815821, 0.123840, 0.123760, 0.122840, 0.122160, 0.123440, 0.122640, 0.121240, 0.122760, 0.122600, 0.123000, 0.121320, 0, 1, 0, 0
14:26:04, 51964.697, 1516605, 3, 1, 8.600000, 2.500000, 319.900000, -0.400000, -0.900000, 0.100000, 2.193457, 0.097922, -9.508246, 0.969635, 21.823952, -33.589589, 8364.000000, -35.411070, 10.608924, 0.498979, 71.000000, 286.600000, 0.000000, 73.900000, 7965.000000, -219.000000, 0, 0, 0, 0, 47.762726, 77.689842, 58.672089, -1.075893, 10.962046, 0.122880, 0.122160, 0.122880, 0.122800, 0.123320, 0.123600, 0.122640, 0.122840, 0.122800, 0.121840, 0.121880, 0, 1, 0, 0
14:26:04, 51964.761, 1516669, 3, 1, 8.600000, 2.400000, 319.900000, 0.100000, -1.300000, 0.000000, 2.115120, -0.088130, -9.772636, 0.996598, 21.823952, -33.589589, 8364.000000, -35.411070, 10.608924, 0.498979, 71.000000, 286.600000, 0.000000, 73.900000, 7965.000000, -217.000000, 0, 0, 0, 0, 47.762726, 77.689842, 58.672089, -1.075893, 10.962046, 0.122880, 0.122160, 0.122880, 0.122800, 0.123320, 0.123600, 0.122640, 0.122840, 0.122800, 0.121840, 0.121880, 0, 1, 0, 0
14:26:04, 51964.833, 1516741, 3, 1, 8.600000, 2.300000, 319.900000, 0.000000, -1.200000, -0.100000, 2.281587, -0.039169, -9.988064, 1.018567, 21.823876, -33.589570, 8364.000000, -35.411063, 10.812074, 0.633839, 72.000000, 286.900000, 0.000000, 74.000000, 7965.000000, -214.000000, 0, 0, 0, 0, 47.762726, 77.689842, 58.672089, -1.075893, 10.962046, 0.122880, 0.122160, 0.122880, 0.122800, 0.123320, 0.123600, 0.122640, 0.122840, 0.122800, 0.121840, 0.121880, 0, 1, 0, 0
14:26:04, 51964.892, 1516800, 3, 1, 8.600000, 2.200000, 319.900000, 0.300000, -1.600000, -0.300000, 2.046574, 0.000000, -9.547415, 0.973630, 21.823876, -33.589570, 8364.000000, -35.411063, 10.812074, 0.633839, 72.000000, 286.900000, 0.000000, 74.000000, 7964.000000, -213.000000, 0, 0, 0, 0, 47.434319, 77.638115, 58.381725, -1.185268, 10.650420, 0.122360, 0.122080, 0.121280, 0.122080, 0.122880, 0.123400, 0.122960, 0.123800, 0.123040, 0.121600, 0.121480, 0, 1, 0, 0
14:26:04, 51964.958, 1516866, 3, 1, 8.700000, 2.100000, 319.900000, 0.300000, -1.600000, -0.400000, 2.330548, -0.137091, -10.291623, 1.049523, 21.823876, -33.589570, 8364.000000, -35.411063, 10.812074, 0.633839, 72.000000, 286.900000, 0.000000, 74.100000, 7964.000000, -210.000000, 0, 0, 0, 0, 47.434319, 77.638115, 58.381725, -1.185268, 10.650420, 0.122360, 0.122080, 0.121280, 0.122080, 0.122880, 0.123400, 0.122960, 0.123800, 0.123040, 0.121600, 0.121480, 0, 1, 0, 0
14:26:05, 51965.012, 1516938, 3, 1, 8.700000, 2.000000, 319.800000, 0.300000, -1.900000, -0.600000, 2.007405, 0.058753, -9.488661, 0.967638, 21.823800, -33.589551, 8363.000000, -35.597858, 10.843373, 0.586708, 72.000000, 287.000000, 0.000000, 74.200000, 7964.000000, -207.000000, 0, 0, 0, 0, 47.229065, 77.689842, 58.042973, -1.250000, 10.710347, 0.123600, 0.123680, 0.123440, 0.123560, 0.123440, 0.122080, 0.121880, 0.122800, 0.123000, 0.123520, 0.121600, 0, 1, 0, 0
14:26:05, 51965.071, 1516997, 3, 1, 8.700000, 1.800000, 319.800000, 0.400000, -2.200000, -0.700000, 2.310964, -0.254598, -10.595182, 1.080480, 21.823800, -33.589551, 8363.000000, -35.597858, 10.843373, 0.586708, 72.000000, 287.000000, 0.000000, 74.200000, 7964.000000, -204.000000, 0, 0, 0, 0, 47.229065, 77.689842, 58.042973, -1.250000, 10.710347, 0.123600, 0.123680, 0.123440, 0.123560, 0.123440, 0.122080, 0.121880, 0.122800, 0.123000, 0.123520, 0.121600, 0, 1, 0, 0
14:26:05, 51965.136, 1517062, 3, 1, 8.700000, 1.700000, 319.700000, 0.200000, -2.000000, -0.800000, 2.007405, 0.068546, -9.341778, 0.952659, 21.823800, -33.589551, 8363.000000, -35.597858, 10.843373, 0.586708, 72.000000, 287.000000, 0.000000, 74.300000, 7964.000000, -202.000000, 0, 0, 0, 0, 47.229065, 77.689842, 58.042973, -1.250000, 10.710347, 0.123600, 0.123680, 0.123440, 0.123560, 0.123440, 0.122080, 0.121880, 0.122800, 0.123000, 0.123520, 0.121600, 0, 1, 0, 0
14:26:05, 51965.211, 1517137, 3, 1, 8.800000, 1.500000, 319.700000, 0.300000, -2.500000, -0.900000, 2.232626, -0.342728, -10.614766, 1.082477, 21.823723, -33.589532, 8363.000000, -35.643174, 10.906017, 0.492381, 72.000000, 287.000000, 0.000000, 74.300000, 7964.000000, -203.000000, 0, 0, 0, 0, 47.218803, 77.932961, 58.226868, -0.950893, 10.523372, 0.123800, 0.122280, 0.123120, 0.122840, 0.123320, 0.123320, 0.123040, 0.122560, 0.121680, 0.123000, 0.122000, 0, 1, 0, 0
14:26:05, 51965.267, 1517193, 3, 1, 8.800000, 1.400000, 319.600000, 0.000000, -1.900000, -0.900000, 2.007405, 0.068546, -9.263440, 0.944671, 21.823723, -33.589532, 8363.000000, -35.643174, 10.906017, 0.492381, 72.000000, 287.000000, 0.000000, 74.300000, 7964.000000, -200.000000, 0, 0, 0, 0, 47.218803, 77.932961, 58.226868, -0.950893, 10.523372, 0.123800, 0.122280, 0.123120, 0.122840, 0.123320, 0.123320, 0.123040, 0.122560, 0.121680, 0.123000, 0.122000, 0, 1, 0, 0
14:26:05, 51965.333, 1517259, 3, 1, 8.800000, 1.200000, 319.500000, 0.000000, -2.300000, -1.000000, 2.124912, -0.235013, -10.448299, 1.065501, 21.823723, -33.589532, 8363.000000, -35.643174, 10.906017, 0.492381, 72.000000, 287.000000, 0.000000, 74.400000, 7964.000000, -197.000000, 0, 0, 0, 0, 47.177750, 78.098495, 58.275261, -0.580357, 10.554535, 0.123680, 0.122840, 0.123600, 0.123320, 0.123400, 0.122720, 0.122720, 0.123240, 0.123200, 0.122240, 0.122080, 0, 1, 0, 0
14:26:05, 51965.464, 1517390, 3, 1, 8.800000, 1.100000, 319.500000, -0.100000, -1.600000, -1.000000, 2.085743, 0.000000, -9.420116, 0.960648, 21.823646, -33.589512, 8362.000000, -35.813004, 11.060801, 0.479690, 72.000000, 287.100000, 0.000000, 74.500000, 7964.000000, -193.000000, 0, 0, 0, 0, 47.690887, 78.036415, 58.275261, -0.437500, 10.679185, 0.122640, 0.122600, 0.123840, 0.122920, 0.123120, 0.123280, 0.123680, 0.122560, 0.123480, 0.123280, 0.122880, 0, 1, 0, 0
14:26:05, 51965.478, 1517404, 3, 1, 8.800000, 0.900000, 319.400000, -0.100000, -1.800000, -0.900000, 1.978028, -0.166468, -10.125155, 1.032547, 21.823646, -33.589512, 8362.000000, -35.813004, 11.060801, 0.479690, 72.000000, 287.100000, 0.000000, 74.600000, 7964.000000, -188.000000, 0, 0, 0, 0, 47.690887, 78.036415, 58.275261, -0.437500, 10.679185, 0.122640, 0.122600, 0.123840, 0.122920, 0.123120, 0.123280, 0.123680, 0.122560, 0.123480, 0.123280, 0.122880, 0, 1, 0, 0
14:26:05, 51965.529, 1517455, 3, 1, 8.800000, 0.900000, 319.300000, -0.100000, -1.000000, -0.700000, 2.115120, -0.117507, -9.557207, 0.974628, 21.823646, -33.589512, 8362.000000, -35.813004, 11.060801, 0.479690, 72.000000, 287.100000, 0.000000, 74.600000, 7964.000000, -186.000000, 0, 0, 0, 0, 47.690887, 78.036415, 58.275261, -0.437500, 10.679185, 0.122640, 0.122600, 0.123840, 0.122920, 0.123120, 0.123280, 0.123680, 0.122560, 0.123480, 0.123280, 0.122880, 0, 1, 0, 0
14:26:05, 51965.660, 1517586, 3, 1, 8.700000, 0.800000, 319.300000, -0.300000, 0.000000, -0.300000, 2.124912, -0.176260, -9.713882, 0.990606, 21.823570, -33.589492, 8362.000000, -35.971502, 11.098370, 0.423118, 73.000000, 287.200000, 0.000000, 74.700000, 7964.000000, -182.000000, 0, 0, 0, 0, 47.690887, 78.036415, 58.275261, -0.437500, 10.679185, 0.122640, 0.122600, 0.123840, 0.122920, 0.123120, 0.123280, 0.123680, 0.122560, 0.123480, 0.123280, 0.122880, 0, 1, 0, 0
14:26:05, 51965.726, 1517652, 3, 1, 8.700000, 0.800000, 319.300000, -0.400000, 0.200000, -0.100000, 1.821353, -0.058753, -9.312401, 0.949664, 21.823570, -33.589492, 8362.000000, -35.971502, 11.098370, 0.423118, 73.000000, 287.200000, 0.000000, 74.800000, 7963.000000, -182.000000, 0, 0, 0, 0, 47.690887, 78.036415, 58.275261, -0.437500, 10.679185, 0.122640, 0.122600, 0.123840, 0.122920, 0.123120, 0.123280, 0.123680, 0.122560, 0.123480, 0.123280, 0.122880, 0, 1, 0, 0
14:26:05, 51965.791, 1517717, 3, 1, 8.700000, 0.800000, 319.300000, -0.300000, 0.700000, 0.000000, 2.115120, -0.225221, -9.958688, 1.015571, 21.823570, -33.589492, 8362.000000, -35.971502, 11.098370, 0.423118, 73.000000, 287.200000, 0.000000, 74.800000, 7963.000000, -182.000000, 0, 0, 0, 0, 49.086617, 78.031242, 58.691444, -0.419643, 10.530563, 0.123600, 0.122800, 0.122120, 0.123320, 0.123360, 0.123360, 0.122000, 0.123080, 0.122680, 0.122320, 0.121600, 0, 1, 0, 0
14:26:05, 51965.857, 1517783, 3, 1, 8.700000, 0.900000, 319.300000, -0.300000, 0.700000, 0.100000, 1.821353, -0.009792, -9.155726, 0.933686, 21.823493, -33.589473, 8362.000000, -35.971495, 11.098397, 0.423074, 73.000000, 287.100000, 0.000000, 74.900000, 7963.000000, -182.000000, 0, 0, 0, 0, 49.086617, 78.031242, 58.691444, -0.419643, 10.530563, 0.123600, 0.122800, 0.122120, 0.123320, 0.123360, 0.123360, 0.122000, 0.123080, 0.122680, 0.122320, 0.121600, 0, 1, 0, 0
14:26:05, 51965.922, 1517848, 3, 1, 8.700000, 0.900000, 319.300000, -0.300000, 1.100000, 0.300000, 2.115120, -0.225221, -10.037026, 1.023560, 21.823493, -33.589473, 8362.000000, -35.971495, 11.098397, 0.423074, 73.000000, 287.100000, 0.000000, 74.900000, 7963.000000, -179.000000, 0, 0, 0, 0, 49.086617, 78.031242, 58.691444, -0.419643, 10.530563, 0.123600, 0.122800, 0.122120, 0.123320, 0.123360, 0.123360, 0.122000, 0.123080, 0.122680, 0.122320, 0.121600, 0, 1, 0, 0
14:26:05, 51965.988, 1517914, 3, 1, 8.700000, 1.000000, 319.300000, -0.300000, 0.800000, 0.300000, 1.870314, 0.029377, -9.087180, 0.926696, 21.823493, -33.589473, 8362.000000, -35.971495, 11.098397, 0.423074, 73.000000, 287.100000, 0.000000, 75.000000, 7963.000000, -176.000000, 0, 0, 0, 0, 49.086617, 78.150223, 58.478516, -0.598214, 10.283660, 0.123480, 0.123520, 0.122960, 0.123560, 0.122880, 0.123280, 0.122720, 0.123040, 0.122280, 0.123520, 0.121360, 0, 1, 0, 0
14:26:06, 51966.041, 1517979, 3, 1, 8.600000, 1.100000, 319.400000, -0.200000, 1.100000, 0.400000, 2.075951, -0.225221, -10.115363, 1.031548, 21.823415, -33.589453, 8361.000000, -36.016810, 11.161041, 0.328747, 73.000000, 287.100000, 0.000000, 75.100000, 7963.000000, -174.000000, 0, 0, 0, 0, 49.086617, 78.150223, 58.478516, -0.598214, 10.283660, 0.123480, 0.123520, 0.122960, 0.123560, 0.122880, 0.123280, 0.122720, 0.123040, 0.122280, 0.123520, 0.121360, 0, 1, 0, 0
14:26:06, 51966.107, 1518045, 3, 1, 8.600000, 1.100000, 319.400000, 0.000000, 0.800000, 0.400000, 1.948652, 0.048961, -9.214479, 0.939678, 21.823415, -33.589453, 8361.000000, -36.016810, 11.161041, 0.328747, 73.000000, 287.100000, 0.000000, 75.100000, 7963.000000, -171.000000, 0, 0, 0, 0, 49.199505, 77.995033, 58.168797, -0.736607, 10.520975, 0.123520, 0.123360, 0.121880, 0.122760, 0.122840, 0.123640, 0.122120, 0.123560, 0.122200, 0.122760, 0.122480, 0, 1, 0, 0
14:26:06, 51966.172, 1518110, 3, 1, 8.600000, 1.200000, 319.400000, 0.000000, 0.900000, 0.400000, 2.056366, -0.205637, -10.164324, 1.036541, 21.823415, -33.589453, 8361.000000, -36.016810, 11.161041, 0.328747, 73.000000, 287.100000, 0.000000, 75.100000, 7963.000000, -166.000000, 0, 0, 0, 0, 49.199505, 77.995033, 58.168797, -0.736607, 10.520975, 0.123520, 0.123360, 0.121880, 0.122760, 0.122840, 0.123640, 0.122120, 0.123560, 0.122200, 0.122760, 0.122480, 0, 1, 0, 0
14:26:06, 51966.238, 1518176, 3, 1, 8.700000, 1.200000, 319.500000, 0.100000, 0.500000, 0.400000, 2.007405, 0.048961, -9.469077, 0.965641, 21.823338, -33.589433, 8361.000000, -36.243167, 11.110919, 0.404213, 73.000000, 287.100000, 0.000000, 75.200000, 7963.000000, -163.000000, 0, 0, 0, 0, 49.137932, 77.917442, 57.917152, -0.553571, 10.192569, 0.123360, 0.122920, 0.123440, 0.123440, 0.122800, 0.122120, 0.121560, 0.123200, 0.123160, 0.122840, 0.121600, 0, 1, 0, 0
14:26:06, 51966.303, 1518241, 3, 1, 8.700000, 1.300000, 319.500000, 0.000000, 0.700000, 0.300000, 2.026990, -0.146883, -10.076194, 1.027554, 21.823338, -33.589433, 8361.000000, -36.243167, 11.110919, 0.404213, 73.000000, 287.100000, 0.000000, 75.200000, 7963.000000, -162.000000, 0, 0, 0, 0, 49.137932, 77.917442, 57.917152, -0.553571, 10.192569, 0.123360, 0.122920, 0.123440, 0.123440, 0.122800, 0.122120, 0.121560, 0.123200, 0.123160, 0.122840, 0.121600, 0, 1, 0, 0
14:26:06, 51966.395, 1518333, 3, 1, 8.700000, 1.300000, 319.500000, 0.200000, 0.000000, 0.100000, 2.105327, -0.029377, -9.684506, 0.987610, 21.823260, -33.589413, 8361.000000, -36.243159, 11.110946, 0.404168, 74.000000, 287.300000, 0.000000, 75.300000, 7963.000000, -161.000000, 0, 0, 0, 0, 49.137932, 77.917442, 57.917152, -0.553571, 10.192569, 0.123360, 0.122920, 0.123440, 0.123440, 0.122800, 0.122120, 0.121560, 0.123200, 0.123160, 0.122840, 0.121600, 0, 1, 0, 0
14:26:06, 51966.434, 1518372, 3, 1, 8.700000, 1.200000, 319.500000, 0.100000, -0.300000, 0.000000, 2.007405, -0.097922, -9.841181, 1.003588, 21.823260, -33.589413, 8361.000000, -36.333806, 11.337742, 0.283051, 74.000000, 287.300000, 0.000000, 75.300000, 7963.000000, -157.000000, 0, 0, 0, 0, 48.922413, 77.777779, 57.801006, -0.462054, 9.854574, 0.122240, 0.122680, 0.123040, 0.122960, 0.123400, 0.123600, 0.122960, 0.122920, 0.122720, 0.121640, 0.122720, 0, 1, 0, 0
14:26:06, 51966.500, 1518438, 3, 1, 8.700000, 1.200000, 319.500000, 0.500000, -0.700000, -0.100000, 2.222834, -0.156676, -10.046818, 1.024558, 21.823260, -33.589413, 8361.000000, -36.333806, 11.337742, 0.283051, 74.000000, 287.300000, 0.000000, 75.400000, 7963.000000, -157.000000, 0, 0, 0, 0, 48.922413, 77.777779, 57.801006, -0.462054, 9.854574, 0.122240, 0.122680, 0.123040, 0.122960, 0.123400, 0.123600, 0.122960, 0.122920, 0.122720, 0.121640, 0.122720, 0, 1, 0, 0
14:26:06, 51966.565, 1518503, 3, 1, 8.800000, 1.100000, 319.500000, 0.500000, -0.600000, -0.100000, 2.007405, -0.029377, -9.664921, 0.985613, 21.823260, -33.589413, 8361.000000, -36.333806, 11.337742, 0.283051, 74.000000, 287.300000, 0.000000, 75.400000, 7963.000000, -153.000000, 0, 0, 0, 0, 48.645321, 77.601906, 57.568718, -0.470982, 9.974431, 0.123640, 0.123080, 0.123040, 0.122680, 0.122800, 0.123360, 0.123640, 0.123760, 0.122320, 0.121560, 0.122120, 0, 1, 0, 0
14:26:06, 51966.631, 1518569, 3, 1, 8.800000, 1.100000, 319.500000, 0.500000, -0.900000, -0.200000, 2.310964, -0.283974, -10.448299, 1.065501, 21.823181, -33.589392, 8360.000000, -36.446980, 11.312696, 0.320761, 74.000000, 287.300000, 0.000000, 75.400000, 7963.000000, -149.000000, 0, 0, 0, 0, 48.645321, 77.601906, 57.568718, -0.470982, 9.974431, 0.123640, 0.123080, 0.123040, 0.122680, 0.122800, 0.123360, 0.123640, 0.123760, 0.122320, 0.121560, 0.122120, 0, 1, 0, 0
14:26:06, 51966.697, 1518635, 3, 1, 8.900000, 1.000000, 319.400000, 0.500000, -0.600000, -0.200000, 1.958444, -0.029377, -9.527830, 0.971633, 21.823181, -33.589392, 8360.000000, -36.446980, 11.312696, 0.320761, 74.000000, 287.300000, 0.000000, 75.500000, 7962.000000, -149.000000, 0, 0, 0, 0, 48.419540, 77.700188, 57.549362, -0.428571, 10.206951, 0.122880, 0.122680, 0.122840, 0.122400, 0.122520, 0.122200, 0.123720, 0.123520, 0.123000, 0.123120, 0.122200, 0, 1, 0, 0
14:26:06, 51966.762, 1518700, 3, 1, 8.900000, 1.000000, 319.400000, 0.600000, -0.700000, -0.200000, 2.301172, -0.362312, -10.663728, 1.087470, 21.823181, -33.589392, 8360.000000, -36.446980, 11.312696, 0.320761, 74.000000, 287.300000, 0.000000, 75.500000, 7962.000000, -148.000000, 0, 0, 0, 0, 48.419540, 77.700188, 57.549362, -0.428571, 10.206951, 0.122880, 0.122680, 0.122840, 0.122400, 0.122520, 0.122200, 0.123720, 0.123520, 0.123000, 0.123120, 0.122200, 0, 1, 0, 0
14:26:06, 51966.843, 1518781, 3, 1, 9.000000, 0.900000, 319.400000, 0.600000, -0.500000, -0.200000, 1.948652, -0.009792, -9.557207, 0.974628, 21.823103, -33.589372, 8360.000000, -36.605477, 11.350266, 0.264186, 74.000000, 287.300000, 0.000000, 75.600000, 7962.000000, -148.000000, 0, 0, 0, 0, 48.419540, 77.700188, 57.549362, -0.428571, 10.206951, 0.122880, 0.122680, 0.122840, 0.122400, 0.122520, 0.122200, 0.123720, 0.123520, 0.123000, 0.123120, 0.122200, 0, 1, 0, 0
14:26:06, 51966.893, 1518831, 3, 1, 9.000000, 0.900000, 319.400000, 0.600000, 0.000000, -0.200000, 2.183665, -0.381897, -10.761650, 1.097456, 21.823103, -33.589372, 8360.000000, -36.605477, 11.350266, 0.264186, 74.000000, 287.300000, 0.000000, 75.700000, 7962.000000, -147.000000, 0, 0, 0, 0, 48.563217, 77.731224, 57.500969, -0.709821, 10.360368, 0.123840, 0.122920, 0.122600, 0.122280, 0.122560, 0.123520, 0.123760, 0.122800, 0.123760, 0.121600, 0.123240, 0, 1, 0, 0
14:26:06, 51966.958, 1518896, 3, 1, 9.100000, 0.900000, 319.400000, 0.600000, 0.000000, -0.200000, 2.056366, 0.009792, -9.753051, 0.994600, 21.823103, -33.589372, 8360.000000, -36.605477, 11.350266, 0.264186, 74.000000, 287.300000, 0.000000, 75.700000, 7962.000000, -144.000000, 0, 0, 0, 0, 48.563217, 77.731224, 57.500969, -0.709821, 10.360368, 0.123840, 0.122920, 0.122600, 0.122280, 0.122560, 0.123520, 0.123760, 0.122800, 0.123760, 0.121600, 0.123240, 0, 1, 0, 0
14:26:07, 51967.041, 1518962, 3, 1, 9.100000, 0.900000, 319.400000, 0.400000, 0.300000, -0.200000, 2.075951, -0.264390, -10.722481, 1.093461, 21.823024, -33.589352, 8360.000000, -36.605469, 11.350294, 0.264140, 74.000000, 287.300000, 0.000000, 75.800000, 7962.000000, -146.000000, 0, 0, 0, 0, 48.470856, 78.010551, 57.239643, -0.600446, 10.391530, 0.122640, 0.122720, 0.123800, 0.122760, 0.122680, 0.122200, 0.123720, 0.123080, 0.122640, 0.121360, 0.122840, 0, 1, 0, 0
14:26:07, 51967.106, 1519027, 3, 1, 9.100000, 0.900000, 319.300000, 0.300000, 0.000000, -0.200000, 2.056366, 0.000000, -9.792220, 0.998595, 21.823024, -33.589352, 8360.000000, -36.605469, 11.350294, 0.264140, 74.000000, 287.300000, 0.000000, 75.900000, 7962.000000, -144.000000, 0, 0, 0, 0, 48.470856, 78.010551, 57.239643, -0.600446, 10.391530, 0.122640, 0.122720, 0.123800, 0.122760, 0.122680, 0.122200, 0.123720, 0.123080, 0.122640, 0.121360, 0.122840, 0, 1, 0, 0
14:26:07, 51967.172, 1519093, 3, 1, 9.100000, 0.900000, 319.300000, 0.100000, 0.200000, -0.200000, 1.929067, -0.186052, -10.369961, 1.057512, 21.823024, -33.589352, 8360.000000, -36.605469, 11.350294, 0.264140, 74.000000, 287.300000, 0.000000, 76.000000, 7962.000000, -142.000000, 0, 0, 0, 0, 48.470856, 78.010551, 57.239643, -0.600446, 10.391530, 0.122640, 0.122720, 0.123800, 0.122760, 0.122680, 0.122200, 0.123720, 0.123080, 0.122640, 0.121360, 0.122840, 0, 1, 0, 0
14:26:07, 51967.237, 1519158, 3, 1, 9.200000, 0.900000, 319.300000, 0.100000, 0.000000, -0.200000, 2.095535, -0.078338, -9.880350, 1.007582, 21.822946, -33.589331, 8360.000000, -36.650783, 11.412939, 0.169810, 74.000000, 287.300000, 0.000000, 76.000000, 7962.000000, -142.000000, 0, 0, 0, 0, 48.552956, 78.015724, 57.471931, -0.584821, 10.381942, 0.123360, 0.122920, 0.123640, 0.121960, 0.123520, 0.123640, 0.123720, 0.123360, 0.122240, 0.123160, 0.122200, 0, 1, 0, 0
14:26:07, 51967.303, 1519224, 3, 1, 9.200000, 0.900000, 319.300000, 0.000000, 0.400000, -0.200000, 1.870314, -0.146883, -10.085987, 1.028553, 21.822946, -33.589331, 8360.000000, -36.650783, 11.412939, 0.169810, 74.000000, 287.300000, 0.000000, 76.100000, 7962.000000, -139.000000, 0, 0, 0, 0, 48.552956, 78.015724, 57.471931, -0.584821, 10.381942, 0.123360, 0.122920, 0.123640, 0.121960, 0.123520, 0.123640, 0.123720, 0.123360, 0.122240, 0.123160, 0.122200, 0, 1, 0, 0
14:26:07, 51967.368, 1519289, 3, 1, 9.200000, 1.000000, 319.300000, -0.100000, 0.200000, -0.100000, 2.095535, -0.107714, -10.017441, 1.021562, 21.822946, -33.589331, 8360.000000, -36.650783, 11.412939, 0.169810, 74.000000, 287.300000, 0.000000, 76.100000, 7961.000000, -138.000000, 0, 0, 0, 0, 48.665844, 78.051933, 57.452576, -0.381696, 10.005593, 0.123600, 0.123680, 0.122600, 0.122240, 0.123480, 0.123320, 0.122720, 0.123480, 0.122520, 0.121800, 0.121920, 0, 1, 0, 0
14:26:07, 51967.434, 1519355, 3, 1, 9.100000, 1.000000, 319.300000, -0.200000, 0.600000, -0.100000, 1.840937, -0.068546, -9.792220, 0.998595, 21.822867, -33.589311, 8360.000000, -36.763958, 11.387893, 0.207519, 74.000000, 287.300000, 0.000000, 76.200000, 7961.000000, -138.000000, 0, 0, 0, 0, 48.665844, 78.051933, 57.452576, -0.381696, 10.005593, 0.123600, 0.123680, 0.122600, 0.122240, 0.123480, 0.123320, 0.122720, 0.123480, 0.122520, 0.121800, 0.121920, 0, 1, 0, 0
14:26:07, 51967.499, 1519420, 3, 1, 9.100000, 1.000000, 319.300000, -0.300000, 0.200000, -0.100000, 2.115120, -0.127299, -10.105571, 1.030550, 21.822867, -33.589311, 8360.000000, -36.763958, 11.387893, 0.207519, 74.000000, 287.300000, 0.000000, 76.300000, 7961.000000, -137.000000, 0, 0, 0, 0, 48.552956, 78.160561, 57.365467, -0.272321, 10.063125, 0.123280, 0.123520, 0.122760, 0.123560, 0.123080, 0.122760, 0.122760, 0.123760, 0.123480, 0.122720, 0.123240, 0, 1, 0, 0
14:26:07, 51967.565, 1519486, 3, 1, 9.100000, 1.000000, 319.300000, -0.300000, 0.300000, 0.000000, 1.860522, -0.029377, -9.586583, 0.977624, 21.822867, -33.589311, 8360.000000, -36.763958, 11.387893, 0.207519, 74.000000, 287.300000, 0.000000, 76.300000, 7961.000000, -136.000000, 0, 0, 0, 0, 48.552956, 78.160561, 57.365467, -0.272321, 10.063125, 0.123280, 0.123520, 0.122760, 0.123560, 0.123080, 0.122760, 0.122760, 0.123760, 0.123480, 0.122720, 0.123240, 0, 1, 0, 0
14:26:07, 51967.630, 1519551, 3, 1, 9.100000, 1.000000, 319.300000, -0.400000, 0.100000, 0.000000, 2.056366, -0.137091, -10.066402, 1.026555, 21.822788, -33.589290, 8360.000000, -36.809271, 11.552100, 0.180639, 75.000000, 287.400000, 0.000000, 76.300000, 7961.000000, -131.000000, 0, 0, 0, 0, 48.552956, 78.160561, 57.365467, -0.272321, 10.063125, 0.123280, 0.123520, 0.122760, 0.123560, 0.123080, 0.122760, 0.122760, 0.123760, 0.123480, 0.122720, 0.123240, 0, 1, 0, 0
14:26:07, 51967.696, 1519617, 3, 1, 9.100000, 1.000000, 319.300000, -0.500000, 0.300000, 0.000000, 1.870314, 0.000000, -9.439700, 0.962645, 21.822788, -33.589290, 8360.000000, -36.809271, 11.552100, 0.180639, 75.000000, 287.400000, 0.000000, 76.300000, 7961.000000, -128.000000, 0, 0, 0, 0, 48.347702, 78.150223, 57.268681, -0.292411, 10.043947, 0.122720, 0.122560, 0.123600, 0.123120, 0.123360, 0.123520, 0.123680, 0.123200, 0.123520, 0.122840, 0.123240, 0, 1, 0, 0
14:26:07, 51967.761, 1519682, 3, 1, 9.000000, 1.000000, 319.300000, -0.200000, -0.200000, 0.000000, 2.017197, -0.186052, -10.037026, 1.023560, 21.822788, -33.589290, 8360.000000, -36.809271, 11.552100, 0.180639, 75.000000, 287.400000, 0.000000, 76.400000, 7961.000000, -125.000000, 0, 0, 0, 0, 48.347702, 78.150223, 57.268681, -0.292411, 10.043947, 0.122720, 0.122560, 0.123600, 0.123120, 0.123360, 0.123520, 0.123680, 0.123200, 0.123520, 0.122840, 0.123240, 0, 1, 0, 0
14:26:07, 51967.827, 1519748, 3, 1, 9.000000, 1.000000, 319.300000, -0.300000, 0.200000, 0.100000, 1.909483, 0.000000, -9.224271, 0.940676, 21.822709, -33.589269, 8359.000000, -36.809263, 11.552128, 0.180592, 75.000000, 287.400000, 0.000000, 76.400000, 7961.000000, -121.000000, 0, 0, 0, 0, 48.296391, 78.227814, 57.123501, -0.386161, 10.070315, 0.122680, 0.122720, 0.122360, 0.123560, 0.122720, 0.123600, 0.122040, 0.123360, 0.123560, 0.122720, 0.123400, 0, 1, 0, 0
14:26:07, 51967.892, 1519813, 3, 1, 9.000000, 1.000000, 319.300000, 0.000000, 0.100000, 0.000000, 2.164081, -0.205637, -10.037026, 1.023560, 21.822709, -33.589269, 8359.000000, -36.809263, 11.552128, 0.180592, 75.000000, 287.400000, 0.000000, 76.500000, 7961.000000, -120.000000, 0, 0, 0, 0, 48.296391, 78.227814, 57.123501, -0.386161, 10.070315, 0.122680, 0.122720, 0.122360, 0.123560, 0.122720, 0.123600, 0.122040, 0.123360, 0.123560, 0.122720, 0.123400, 0, 1, 0, 0
14:26:07, 51967.958, 1519879, 3, 1, 9.000000, 1.100000, 319.300000, -0.200000, 0.000000, 0.100000, 1.978028, 0.029377, -9.243856, 0.942673, 21.822709, -33.589269, 8359.000000, -36.809263, 11.552128, 0.180592, 75.000000, 287.400000, 0.000000, 76.500000, 7961.000000, -122.000000, 0, 0, 0, 0, 48.296391, 78.227814, 57.123501, -0.386161, 10.070315, 0.122680, 0.122720, 0.122360, 0.123560, 0.122720, 0.123600, 0.122040, 0.123360, 0.123560, 0.122720, 0.123400, 0, 1, 0, 0
14:26:08, 51968.064, 1519990, 3, 1, 9.000000, 1.000000, 319.300000, 0.000000, -0.100000, 0.100000, 2.144496, -0.283974, -10.193701, 1.039537, 21.822629, -33.589248, 8359.000000, -36.854576, 11.614773, 0.086261, 75.000000, 287.400000, 0.000000, 76.500000, 7961.000000, -120.000000, 0, 0, 0, 0, 48.419540, 78.336433, 57.055748, -0.412946, 9.904914, 0.122720, 0.123560, 0.123280, 0.123440, 0.122800, 0.122720, 0.123400, 0.122480, 0.123440, 0.121560, 0.123600, 0, 1, 0, 0
14:26:08, 51968.084, 1520010, 3, 1, 9.000000, 1.000000, 319.300000, 0.000000, -0.400000, 0.100000, 2.007405, 0.088130, -9.390739, 0.957652, 21.822629, -33.589248, 8359.000000, -36.854576, 11.614773, 0.086261, 75.000000, 287.400000, 0.000000, 76.600000, 7961.000000, -117.000000, 0, 0, 0, 0, 48.419540, 78.336433, 57.055748, -0.412946, 9.904914, 0.122720, 0.123560, 0.123280, 0.123440, 0.122800, 0.122720, 0.123400, 0.122480, 0.123440, 0.121560, 0.123600, 0, 1, 0, 0
14:26:08, 51968.149, 1520075, 3, 1, 9.000000, 0.900000, 319.300000, 0.200000, -1.000000, 0.000000, 2.085743, -0.274182, -10.232870, 1.043532, 21.822629, -33.589248, 8359.000000, -36.854576, 11.614773, 0.086261, 75.000000, 287.400000, 0.000000, 76.600000, 7961.000000, -115.000000, 0, 0, 0, 0, 48.419540, 78.336433, 57.055748, -0.412946, 9.904914, 0.122720, 0.123560, 0.123280, 0.123440, 0.122800, 0.122720, 0.123400, 0.122480, 0.123440, 0.121560, 0.123600, 0, 1, 0, 0
14:26:08, 51968.215, 1520141, 3, 1, 9.100000, 0.900000, 319.300000, 0.100000, -0.900000, 0.100000, 2.085743, -0.029377, -9.615960, 0.980620, 21.822550, -33.589227, 8359.000000, -36.967750, 11.488166, 0.056518, 75.000000, 287.300000, 0.000000, 76.600000, 7961.000000, -110.000000, 0, 0, 0, 0, 48.419540, 78.336433, 57.055748, -0.412946, 9.904914, 0.122720, 0.123560, 0.123280, 0.123440, 0.122800, 0.122720, 0.123400, 0.122480, 0.123440, 0.121560, 0.123600, 0, 1, 0, 0
14:26:08, 51968.280, 1520206, 3, 1, 9.100000, 0.800000, 319.300000, 0.300000, -1.100000, 0.000000, 2.007405, -0.323143, -10.262247, 1.046527, 21.822550, -33.589227, 8359.000000, -36.967750, 11.488166, 0.056518, 75.000000, 287.300000, 0.000000, 76.700000, 7961.000000, -102.000000, 0, 0, 0, 0, 48.440067, 78.315750, 57.036392, -0.301339, 9.521375, 0.122880, 0.123520, 0.123360, 0.123560, 0.123360, 0.123280, 0.122800, 0.123480, 0.123520, 0.123120, 0.121960, 0, 1, 0, 0
14:26:08, 51968.346, 1520272, 3, 1, 9.100000, 0.700000, 319.300000, 0.200000, -0.700000, 0.100000, 2.144496, -0.078338, -9.831389, 1.002589, 21.822550, -33.589227, 8359.000000, -36.967750, 11.488166, 0.056518, 75.000000, 287.300000, 0.000000, 76.700000, 7962.000000, -97.000000, 0, 0, 0, 0, 48.440067, 78.315750, 57.036392, -0.301339, 9.521375, 0.122880, 0.123520, 0.123360, 0.123560, 0.123360, 0.123280, 0.122800, 0.123480, 0.123520, 0.123120, 0.121960, 0, 1, 0, 0
14:26:08, 51968.415, 1520341, 3, 1, 9.100000, 0.700000, 319.300000, 0.300000, -0.800000, 0.100000, 1.938860, -0.313351, -10.272039, 1.047526, 21.822470, -33.589207, 8360.000000, -37.013063, 11.652374, 0.029637, 75.000000, 287.300000, 0.000000, 76.700000, 7962.000000, -91.000000, 0, 0, 0, 0, 48.440067, 78.315750, 57.036392, -0.301339, 9.521375, 0.122880, 0.123520, 0.123360, 0.123560, 0.123360, 0.123280, 0.122800, 0.123480, 0.123520, 0.123120, 0.121960, 0, 1, 0, 0
14:26:08, 51968.477, 1520403, 3, 1, 9.100000, 0.600000, 319.300000, 0.400000, -0.900000, 0.000000, 2.262003, -0.166468, -10.027233, 1.022561, 21.822470, -33.589207, 8360.000000, -37.013063, 11.652374, 0.029637, 75.000000, 287.300000, 0.000000, 76.800000, 7962.000000, -84.000000, 0, 0, 0, 0, 48.255337, 78.326096, 57.152534, -0.218750, 9.547742, 0.124120, 0.123280, 0.122960, 0.122960, 0.123520, 0.123360, 0.122760, 0.123520, 0.122640, 0.121520, 0.121600, 0, 1, 0, 0
14:26:08, 51968.542, 1520468, 3, 1, 9.200000, 0.600000, 319.400000, 0.200000, -0.700000, 0.000000, 1.821353, -0.235013, -10.125155, 1.032547, 21.822470, -33.589207, 8360.000000, -37.013063, 11.652374, 0.029637, 75.000000, 287.300000, 0.000000, 76.900000, 7962.000000, -84.000000, 0, 0, 0, 0, 48.255337, 78.326096, 57.152534, -0.218750, 9.547742, 0.124120, 0.123280, 0.122960, 0.122960, 0.123520, 0.123360, 0.122760, 0.123520, 0.122640, 0.121520, 0.121600, 0, 1, 0, 0
14:26:08, 51968.612, 1520538, 3, 1, 9.200000, 0.500000, 319.400000, 0.100000, -0.700000, 0.100000, 2.252211, -0.264390, -10.262247, 1.046527, 21.822390, -33.589186, 8359.000000, -37.013054, 11.550839, -0.037861, 75.000000, 287.400000, 0.000000, 76.900000, 7962.000000, -80.000000, 0, 0, 0, 0, 48.265602, 78.445068, 57.017036, -0.397321, 9.797044, 0.123600, 0.122720, 0.122080, 0.122080, 0.123400, 0.123640, 0.121240, 0.122960, 0.123080, 0.122680, 0.122440, 0, 1, 0, 0
14:26:08, 51968.673, 1520599, 3, 1, 9.200000, 0.500000, 319.400000, 0.000000, -0.500000, 0.000000, 1.772392, -0.117507, -9.850973, 1.004586, 21.822390, -33.589186, 8359.000000, -37.013054, 11.550839, -0.037861, 75.000000, 287.400000, 0.000000, 77.000000, 7962.000000, -79.000000, 0, 0, 0, 0, 48.265602, 78.445068, 57.017036, -0.397321, 9.797044, 0.123600, 0.122720, 0.122080, 0.122080, 0.123400, 0.123640, 0.121240, 0.122960, 0.123080, 0.122680, 0.122440, 0, 1, 0, 0
14:26:08, 51968.740, 1520666, 3, 1, 9.200000, 0.400000, 319.400000, 0.000000, -0.500000, 0.000000, 2.144496, -0.293767, -10.448299, 1.065501, 21.822390, -33.589186, 8359.000000, -37.013054, 11.550839, -0.037861, 75.000000, 287.400000, 0.000000, 77.100000, 7962.000000, -77.000000, 0, 0, 0, 0, 48.327175, 78.517487, 56.900890, -0.325893, 9.576509, 0.122280, 0.123320, 0.122720, 0.122280, 0.121880, 0.123640, 0.122120, 0.122560, 0.121440, 0.122040, 0.122360, 0, 1, 0, 0
14:26:08, 51968.811, 1520737, 3, 1, 9.200000, 0.400000, 319.400000, -0.100000, -0.300000, 0.000000, 1.762600, 0.000000, -9.537622, 0.972631, 21.822310, -33.589165, 8359.000000, -37.182880, 11.705628, -0.050560, 75.000000, 287.400000, 0.000000, 77.100000, 7962.000000, -76.000000, 0, 0, 0, 0, 48.327175, 78.517487, 56.900890, -0.325893, 9.576509, 0.122280, 0.123320, 0.122720, 0.122280, 0.121880, 0.123640, 0.122120, 0.122560, 0.121440, 0.122040, 0.122360, 0, 1, 0, 0
14:26:08, 51968.870, 1520796, 3, 1, 9.200000, 0.400000, 319.400000, -0.200000, -0.600000, 0.000000, 1.948652, -0.254598, -10.507052, 1.071492, 21.822310, -33.589165, 8359.000000, -37.182880, 11.705628, -0.050560, 75.000000, 287.400000, 0.000000, 77.200000, 7962.000000, -73.000000, 0, 0, 0, 0, 48.327175, 78.517487, 56.900890, -0.325893, 9.576509, 0.122280, 0.123320, 0.122720, 0.122280, 0.121880, 0.123640, 0.122120, 0.122560, 0.121440, 0.122040, 0.122360, 0, 1, 0, 0
14:26:08, 51968.935, 1520861, 3, 1, 9.100000, 0.300000, 319.400000, -0.400000, -0.500000, 0.000000, 1.772392, 0.058753, -9.351570, 0.953658, 21.822310, -33.589165, 8359.000000, -37.182880, 11.705628, -0.050560, 75.000000, 287.400000, 0.000000, 77.200000, 7962.000000, -72.000000, 0, 0, 0, 0, 48.224548, 78.610596, 57.026714, -0.566964, 9.586097, 0.122920, 0.122720, 0.123640, 0.122120, 0.122800, 0.123360, 0.121600, 0.123720, 0.122720, 0.121560, 0.122800, 0, 1, 0, 0
14:26:09, 51969.015, 1520940, 3, 1, 9.100000, 0.300000, 319.400000, -0.500000, -0.900000, -0.100000, 1.831145, -0.146883, -10.193701, 1.039537, 21.822230, -33.589144, 8360.000000, -37.482855, 11.711860, -0.059947, 76.000000, 287.300000, 0.000000, 77.300000, 7962.000000, -68.000000, 0, 0, 0, 0, 48.224548, 78.610596, 57.026714, -0.566964, 9.586097, 0.122920, 0.122720, 0.123640, 0.122120, 0.122800, 0.123360, 0.121600, 0.123720, 0.122720, 0.121560, 0.122800, 0, 1, 0, 0
14:26:09, 51969.067, 1520992, 3, 1, 9.100000, 0.200000, 319.400000, -0.600000, -0.500000, -0.100000, 1.850730, 0.039169, -9.273232, 0.945669, 21.822230, -33.589144, 8360.000000, -37.482855, 11.711860, -0.059947, 76.000000, 287.300000, 0.000000, 77.300000, 7962.000000, -68.000000, 0, 0, 0, 0, 48.409279, 78.770950, 56.804104, -0.587054, 9.598082, 0.122840, 0.122880, 0.123600, 0.123200, 0.122480, 0.123560, 0.123000, 0.122640, 0.123600, 0.123240, 0.122200, 0, 1, 0, 0
14:26:09, 51969.212, 1521137, 3, 1, 9.000000, 0.100000, 319.300000, -0.600000, -0.300000, -0.100000, 1.919275, 0.009792, -9.302609, 0.948665, 21.822149, -33.589123, 8360.000000, -37.482846, 11.711889, -0.059995, 76.000000, 287.400000, 0.000000, 77.400000, 7962.000000, -63.000000, 0, 0, 0, 0, 48.511906, 78.693359, 57.065430, -0.669643, 9.353576, 0.123680, 0.122880, 0.122600, 0.123520, 0.122720, 0.122680, 0.123720, 0.122920, 0.122680, 0.122640, 0.121560, 0, 1, 0, 0
14:26:09, 51969.264, 1521189, 3, 1, 8.900000, 0.100000, 319.300000, -0.700000, -0.200000, -0.200000, 1.694054, -0.039169, -9.704090, 0.989607, 21.822149, -33.589123, 8360.000000, -37.482846, 11.711889, -0.059995, 76.000000, 287.400000, 0.000000, 77.400000, 7962.000000, -63.000000, 0, 0, 0, 0, 48.511906, 78.693359, 57.065430, -0.669643, 9.353576, 0.123680, 0.122880, 0.122600, 0.123520, 0.122720, 0.122680, 0.123720, 0.122920, 0.122680, 0.122640, 0.121560, 0, 1, 0, 0
14:26:09, 51969.329, 1521254, 3, 1, 8.900000, 0.100000, 319.300000, -0.800000, 0.000000, -0.100000, 1.968236, -0.029377, -9.449492, 0.963644, 21.822149, -33.589123, 8360.000000, -37.482846, 11.711889, -0.059995, 76.000000, 287.400000, 0.000000, 77.500000, 7963.000000, -57.000000, 0, 0, 0, 0, 48.511906, 78.693359, 57.065430, -0.669643, 9.353576, 0.123680, 0.122880, 0.122600, 0.123520, 0.122720, 0.122680, 0.123720, 0.122920, 0.122680, 0.122640, 0.121560, 0, 1, 0, 0
14:26:09, 51969.455, 1521380, 3, 1, 8.800000, 0.100000, 319.300000, -0.600000, -0.100000, -0.200000, 1.713639, -0.009792, -9.410323, 0.959650, 21.822069, -33.589102, 8360.000000, -37.369653, 11.736991, -0.097796, 76.000000, 287.300000, 0.000000, 77.600000, 7963.000000, -52.000000, 0, 0, 0, 0, 48.604267, 78.801987, 57.210609, -0.437500, 9.377547, 0.122720, 0.123680, 0.123800, 0.123440, 0.123480, 0.123200, 0.122200, 0.122720, 0.122520, 0.122760, 0.121560, 0, 1, 0, 0
14:26:09, 51969.468, 1521393, 3, 1, 8.800000, 0.100000, 319.300000, -0.800000, 0.100000, -0.100000, 1.899691, -0.137091, -9.694298, 0.988609, 21.822069, -33.589102, 8360.000000, -37.369653, 11.736991, -0.097796, 76.000000, 287.300000, 0.000000, 77.600000, 7963.000000, -48.000000, 0, 0, 0, 0, 48.604267, 78.801987, 57.210609, -0.437500, 9.377547, 0.122720, 0.123680, 0.123800, 0.123440, 0.123480, 0.123200, 0.122200, 0.122720, 0.122520, 0.122760, 0.121560, 0, 1, 0, 0
14:26:09, 51969.527, 1521452, 3, 1, 8.700000, 0.100000, 319.200000, -0.600000, 0.100000, -0.200000, 1.782184, -0.058753, -9.537622, 0.972631, 21.822069, -33.589102, 8360.000000, -37.369653, 11.736991, -0.097796, 76.000000, 287.300000, 0.000000, 77.600000, 7963.000000, -43.000000, 0, 0, 0, 0, 48.717159, 78.796814, 57.075108, -0.631696, 9.332002, 0.123920, 0.123520, 0.122720, 0.123200, 0.123160, 0.123680, 0.122160, 0.122640, 0.123080, 0.122320, 0.121600, 0, 1, 0, 0
14:26:09, 51969.613, 1521538, 3, 1, 8.700000, 0.100000, 319.200000, -0.700000, 0.100000, -0.200000, 1.978028, 0.029377, -9.429908, 0.961647, 21.821988, -33.589081, 8360.000000, -37.528148, 11.774564, -0.154376, 76.000000, 287.400000, 0.000000, 77.600000, 7963.000000, -40.000000, 0, 0, 0, 0, 48.717159, 78.796814, 57.075108, -0.631696, 9.332002, 0.123920, 0.123520, 0.122720, 0.123200, 0.123160, 0.123680, 0.122160, 0.122640, 0.123080, 0.122320, 0.121600, 0, 1, 0, 0
14:26:09, 51969.657, 1521582, 3, 1, 8.700000, 0.100000, 319.200000, -0.400000, -0.100000, -0.300000, 1.791976, -0.058753, -9.576791, 0.976626, 21.821988, -33.589081, 8360.000000, -37.528148, 11.774564, -0.154376, 76.000000, 287.400000, 0.000000, 77.700000, 7963.000000, -36.000000, 0, 0, 0, 0, 48.717159, 78.796814, 57.075108, -0.631696, 9.332002, 0.123920, 0.123520, 0.122720, 0.123200, 0.123160, 0.123680, 0.122160, 0.122640, 0.123080, 0.122320, 0.121600, 0, 1, 0, 0
14:26:09, 51969.722, 1521647, 3, 1, 8.600000, 0.100000, 319.200000, -0.600000, 0.000000, -0.300000, 1.938860, 0.009792, -9.596376, 0.978623, 21.821988, -33.589081, 8360.000000, -37.528148, 11.774564, -0.154376, 76.000000, 287.400000, 0.000000, 77.700000, 7964.000000, -33.000000, 0, 0, 0, 0, 48.768471, 78.817505, 57.210609, -0.537946, 9.149820, 0.123280, 0.123680, 0.121440, 0.122280, 0.122800, 0.123400, 0.123720, 0.123440, 0.123320, 0.122400, 0.122880, 0, 1, 0, 0
14:26:09, 51969.788, 1521713, 3, 1, 8.600000, 0.100000, 319.100000, -0.200000, -0.400000, -0.400000, 1.840937, -0.137091, -9.547415, 0.973630, 21.821988, -33.589081, 8360.000000, -37.528148, 11.774564, -0.154376, 76.000000, 287.400000, 0.000000, 77.800000, 7964.000000, -32.000000, 0, 0, 0, 0, 48.768471, 78.817505, 57.210609, -0.537946, 9.149820, 0.123280, 0.123680, 0.121440, 0.122280, 0.122800, 0.123400, 0.123720, 0.123440, 0.123320, 0.122400, 0.122880, 0, 1, 0, 0
14:26:09, 51969.853, 1521778, 3, 1, 8.600000, 0.000000, 319.100000, -0.200000, -0.300000, -0.400000, 1.880106, -0.048961, -9.743259, 0.993602, 21.821907, -33.589059, 8360.000000, -37.686643, 11.812137, -0.210957, 76.000000, 287.400000, 0.000000, 77.900000, 7964.000000, -31.000000, 0, 0, 0, 0, 48.788998, 78.677841, 57.026714, -0.529018, 8.934079, 0.122280, 0.122920, 0.122680, 0.122840, 0.123480, 0.123680, 0.123560, 0.123520, 0.122840, 0.123160, 0.122240, 0, 1, 0, 0
14:26:09, 51969.919, 1521844, 3, 1, 8.600000, 0.000000, 319.100000, -0.200000, -0.300000, -0.400000, 1.840937, -0.127299, -9.478869, 0.966640, 21.821907, -33.589059, 8360.000000, -37.686643, 11.812137, -0.210957, 76.000000, 287.400000, 0.000000, 77.900000, 7964.000000, -28.000000, 0, 0, 0, 0, 48.788998, 78.677841, 57.026714, -0.529018, 8.934079, 0.122280, 0.122920, 0.122680, 0.122840, 0.123480, 0.123680, 0.123560, 0.123520, 0.122840, 0.123160, 0.122240, 0, 1, 0, 0
14:26:09, 51969.984, 1521909, 3, 1, 8.600000, 0.000000, 319.100000, -0.200000, -0.300000, -0.300000, 1.880106, -0.107714, -9.811804, 1.000592, 21.821907, -33.589059, 8360.000000, -37.686643, 11.812137, -0.210957, 76.000000, 287.400000, 0.000000, 78.000000, 7964.000000, -26.000000, 0, 0, 0, 0, 48.788998, 78.677841, 57.026714, -0.529018, 8.934079, 0.122280, 0.122920, 0.122680, 0.122840, 0.123480, 0.123680, 0.123560, 0.123520, 0.122840, 0.123160, 0.122240, 0, 1, 0, 0
14:26:10, 51970.041, 1521975, 3, 1, 8.600000, 0.000000, 319.000000, -0.100000, -0.200000, -0.300000, 1.880106, -0.156676, -9.302609, 0.948665, 21.821826, -33.589038, 8361.000000, -37.845137, 11.849711, -0.267538, 77.000000, 287.400000, 0.000000, 78.000000, 7964.000000, -27.000000, 0, 0, 0, 0, 48.552956, 78.765778, 57.084785, -0.415179, 9.017979, 0.123320, 0.123520, 0.122920, 0.123560, 0.123360, 0.122560, 0.122160, 0.122640, 0.122440, 0.122120, 0.122880, 0, 1, 0, 0
14:26:10, 51970.106, 1522040, 3, 1, 8.600000, 0.000000, 319.000000, -0.100000, 0.000000, -0.200000, 1.889898, -0.176260, -9.899934, 1.009579, 21.821826, -33.589038, 8361.000000, -37.845137, 11.849711, -0.267538, 77.000000, 287.400000, 0.000000, 78.100000, 7964.000000, -28.000000, 0, 0, 0, 0, 48.552956, 78.765778, 57.084785, -0.415179, 9.017979, 0.123320, 0.123520, 0.122920, 0.123560, 0.123360, 0.122560, 0.122160, 0.122640, 0.122440, 0.122120, 0.122880, 0, 1, 0, 0
14:26:10, 51970.172, 1522106, 3, 1, 8.600000, 0.000000, 319.000000, 0.000000, 0.000000, -0.100000, 1.821353, -0.107714, -9.312401, 0.949664, 21.821826, -33.589038, 8361.000000, -37.845137, 11.849711, -0.267538, 77.000000, 287.400000, 0.000000, 78.200000, 7964.000000, -25.000000, 0, 0, 0, 0, 48.830051, 78.688187, 57.094463, -0.366071, 8.699162, 0.123600, 0.122400, 0.122800, 0.123120, 0.123360, 0.123280, 0.122040, 0.123000, 0.122560, 0.122640, 0.122640, 0, 1, 0, 0
14:26:10, 51970.237, 1522171, 3, 1, 8.600000, 0.000000, 319.000000, 0.000000, 0.100000, 0.000000, 1.948652, -0.254598, -9.958688, 1.015571, 21.821744, -33.589016, 8361.000000, -37.845127, 11.849741, -0.267587, 77.000000, 287.400000, 0.000000, 78.200000, 7964.000000, -25.000000, 0, 0, 0, 0, 48.830051, 78.688187, 57.094463, -0.366071, 8.699162, 0.123600, 0.122400, 0.122800, 0.123120, 0.123360, 0.123280, 0.122040, 0.123000, 0.122560, 0.122640, 0.122640, 0, 1, 0, 0
14:26:10, 51970.303, 1522237, 3, 1, 8.600000, 0.000000, 319.000000, 0.000000, 0.000000, 0.000000, 1.831145, -0.009792, -9.263440, 0.944671, 21.821744, -33.589016, 8361.000000, -37.845127, 11.849741, -0.267587, 77.000000, 287.400000, 0.000000, 78.300000, 7964.000000, -25.000000, 0, 0, 0, 0, 48.922413, 78.574387, 57.210609, -0.098214, 8.639233, 0.123720, 0.123680, 0.123200, 0.123320, 0.123440, 0.123640, 0.122680, 0.122600, 0.123400, 0.122840, 0.122840, 0, 1, 0, 0
14:26:10, 51970.379, 1522313, 3, 1, 8.600000, 0.000000, 319.000000, 0.100000, -0.100000, 0.000000, 1.929067, -0.264390, -9.919519, 1.011576, 21.821744, -33.589016, 8361.000000, -37.845127, 11.849741, -0.267587, 77.000000, 287.400000, 0.000000, 78.400000, 7964.000000, -23.000000, 0, 0, 0, 0, 48.922413, 78.574387, 57.210609, -0.098214, 8.639233, 0.123720, 0.123680, 0.123200, 0.123320, 0.123440, 0.123640, 0.122680, 0.122600, 0.123400, 0.122840, 0.122840, 0, 1, 0, 0
14:26:10, 51970.434, 1522368, 3, 1, 8.600000, 0.000000, 319.000000, 0.100000, 0.100000, 0.200000, 1.860522, -0.088130, -9.283025, 0.946668, 21.821663, -33.588995, 8361.000000, -37.958302, 11.824698, -0.229884, 77.000000, 287.300000, 0.000000, 78.400000, 7964.000000, -21.000000, 0, 0, 0, 0, 48.922413, 78.574387, 57.210609, -0.098214, 8.639233, 0.123720, 0.123680, 0.123200, 0.123320, 0.123440, 0.123640, 0.122680, 0.122600, 0.123400, 0.122840, 0.122840, 0, 1, 0, 0
14:26:10, 51970.499, 1522433, 3, 1, 8.600000, 0.000000, 319.000000, 0.100000, 0.400000, 0.200000, 1.831145, -0.264390, -9.997857, 1.019565, 21.821663, -33.588995, 8361.000000, -37.958302, 11.824698, -0.229884, 77.000000, 287.300000, 0.000000, 78.500000, 7964.000000, -17.000000, 0, 0, 0, 0, 48.963463, 78.724396, 56.949284, -0.149554, 8.831002, 0.123080, 0.123680, 0.122960, 0.122880, 0.122680, 0.122640, 0.123680, 0.122360, 0.122200, 0.123080, 0.123480, 0, 1, 0, 0
14:26:10, 51970.565, 1522499, 3, 1, 8.600000, 0.000000, 319.100000, 0.000000, 0.400000, 0.300000, 1.880106, 0.000000, -9.429908, 0.961647, 21.821663, -33.588995, 8361.000000, -37.958302, 11.824698, -0.229884, 77.000000, 287.300000, 0.000000, 78.500000, 7964.000000, -17.000000, 0, 0, 0, 0, 48.963463, 78.724396, 56.949284, -0.149554, 8.831002, 0.123080, 0.123680, 0.122960, 0.122880, 0.122680, 0.122640, 0.123680, 0.122360, 0.122200, 0.123080, 0.123480, 0, 1, 0, 0
14:26:10, 51970.657, 1522591, 3, 1, 8.600000, 0.000000, 319.100000, -0.100000, 0.000000, 0.300000, 1.762600, -0.166468, -9.890142, 1.008581, 21.821581, -33.588974, 8361.000000, -38.116796, 11.862273, -0.286466, 77.000000, 287.200000, 0.000000, 78.600000, 7964.000000, -14.000000, 0, 0, 0, 0, 48.891624, 78.719223, 57.075108, -0.272321, 8.759089, 0.122960, 0.122600, 0.123680, 0.123280, 0.123360, 0.123360, 0.123840, 0.123440, 0.121960, 0.122840, 0.124000, 0, 1, 0, 0
14:26:10, 51970.696, 1522630, 3, 1, 8.600000, 0.000000, 319.100000, 0.000000, 0.000000, 0.400000, 1.958444, -0.039169, -9.488661, 0.967638, 21.821581, -33.588974, 8361.000000, -38.116796, 11.862273, -0.286466, 77.000000, 287.200000, 0.000000, 78.600000, 7964.000000, -10.000000, 0, 0, 0, 0, 48.891624, 78.719223, 57.075108, -0.272321, 8.759089, 0.122960, 0.122600, 0.123680, 0.123280, 0.123360, 0.123360, 0.123840, 0.123440, 0.121960, 0.122840, 0.124000, 0, 1, 0, 0
14:26:10, 51970.762, 1522696, 3, 1, 8.600000, 0.100000, 319.100000, -0.100000, 0.300000, 0.400000, 1.684262, -0.088130, -9.645337, 0.983616, 21.821581, -33.588974, 8361.000000, -38.116796, 11.862273, -0.286466, 77.000000, 287.200000, 0.000000, 78.700000, 7965.000000, -5.000000, 0, 0, 0, 0, 48.881363, 78.651978, 56.794426, -0.457589, 8.737514, 0.123320, 0.123800, 0.122720, 0.122080, 0.122560, 0.123400, 0.123680, 0.122600, 0.121560, 0.122840, 0.121560, 0, 1, 0, 0
